Year,Month,Day,Time,Flight_Time_(s),Sync,Gyro_X,Gyro_Y,Gyro_Z,Accel_X,Accel_Y,Accel_Z,Quat_1,Quat_2,Quat_3,Quat_4,Aux_Volts,Current
2025,8,16,28:04.4,-2.022,46,-13.2,-1.2,1.8,-1.06,-0.11,-0.15,1,0,-0.00003,-0.0001,0.029,0
2025,8,16,28:04.4,-2.02,48,-16.7,-2.3,-0.5,-1,-0.15,-0.13,1,-0.0003,-0.00007,-0.0001,0.029,0
2025,8,16,28:04.4,-2.018,50,-14.4,-2.2,-1.8,-0.97,-0.15,-0.11,1,-0.00023,-0.00003,0,0.029,0
2025,8,16,28:04.4,-2.016,52,-3.6,-0.8,-3,-0.94,-0.18,-0.06,1,-0.0003,-0.00003,-0.00007,0.029,0
2025,8,16,28:04.4,-2.014,54,9.3,0.9,-2.8,-0.9,-0.2,0,1,-0.00013,-0.00003,-0.00013,0.029,0
2025,8,16,28:04.4,-2.012,56,13.9,1.7,-1.8,-0.89,-0.2,0,1,0.00007,0,-0.00017,0.029,0
2025,8,16,28:04.4,-2.01,58,15.7,1.6,0.6,-0.86,-0.2,0.05,1,0.00033,0,-0.00013,0.029,0
2025,8,16,28:04.4,-2.008,60,8.7,1,2.8,-0.85,-0.18,0.1,0.99997,0.0005,0.00003,-0.0001,0.029,0
2025,8,16,28:04.4,-2.006,62,3.1,1,3.2,-0.83,-0.17,0.12,0.99997,0.00057,0.00003,-0.00003,0.029,0
2025,8,16,28:04.4,-2.004,64,-9.2,-0.3,2.6,-0.84,-0.13,0.15,0.99997,0.0004,0.00003,0,0.029,0
2025,8,16,28:04.4,-2.002,66,-16.6,-2.1,0.4,-0.84,-0.09,0.19,1,0.0001,0,0,0.029,0
2025,8,16,28:04.4,-2,68,-16.6,-2.4,-0.7,-0.85,-0.06,0.19,1,-0.00017,0,0,0.029,0
2025,8,16,28:04.4,-1.998,70,-8.8,-1.4,-2.8,-0.87,-0.01,0.2,1,-0.0003,-0.00003,-0.00003,0.029,0
2025,8,16,28:04.4,-1.996,72,-2.1,-0.7,-3.1,-0.89,0,0.19,1,-0.00033,-0.00007,-0.0001,0.029,0
2025,8,16,28:04.4,-1.994,74,10.3,1.2,-2.5,-0.92,0.05,0.19,1,-0.00017,-0.00003,-0.00013,0.029,0
2025,8,16,28:04.4,-1.992,76,16.1,1.7,-0.5,-0.96,0.09,0.18,1,0.0001,0,-0.00017,0.029,0
2025,8,16,28:04.4,-1.99,78,15.3,1.4,0.8,-0.98,0.11,0.16,1,0.00037,0,-0.00013,0.029,0
2025,8,16,28:04.4,-1.988,80,7.7,1,2.6,-1.03,0.14,0.11,0.99997,0.0005,0,-0.0001,0.029,0
2025,8,16,28:04.4,-1.986,82,-4.3,0.3,3,-1.08,0.16,0.06,0.99997,0.0004,0,-0.00003,0.029,0
2025,8,16,28:04.4,-1.984,84,-10.4,-0.6,2.5,-1.08,0.16,0.05,1,0.00023,0,0,0.029,0
2025,8,16,28:04.4,-1.982,86,-16.8,-2.2,0.2,-1.12,0.16,0,1,-0.00003,0,0,0.028,0
2025,8,16,28:04.4,-1.98,88,-12.9,-2,-2.3,-1.14,0.16,-0.04,1,-0.00027,-0.00003,-0.00003,0.029,0
2025,8,16,28:04.4,-1.978,90,-7.3,-1.1,-2.8,-1.15,0.13,-0.07,0.99997,-0.00037,-0.00007,-0.00007,0.029,0
2025,8,16,28:04.4,-1.976,92,5.8,0.5,-3,-1.16,0.11,-0.11,1,-0.00027,-0.00003,-0.00013,0.029,0
2025,8,16,28:04.4,-1.974,94,11.3,1.4,-2.5,-1.16,0.08,-0.12,1,-0.00007,-0.00003,-0.00017,0.029,0
2025,8,16,28:04.4,-1.972,96,16.2,1.6,-0.2,-1.14,0.04,-0.14,1,0.00017,0,-0.00017,0.029,0
2025,8,16,28:04.4,-1.97,98,12.7,0.9,1.8,-1.09,-0.05,-0.1,0.99997,0.0004,0,-0.00013,0.029,0
2025,8,16,28:04.4,-1.968,100,2.6,-0.3,0.5,-0.99,-0.02,0.05,0.99997,0.00043,0,-0.00013,0.029,0
2025,8,16,28:04.4,-1.966,102,0,0,0,-0.99,-0.01,0.02,0.99997,0.00043,0,-0.00013,0.029,0
2025,8,16,28:04.4,-1.964,104,-0.2,-0.1,0,-0.99,-0.01,0.02,0.99997,0.00043,0,-0.00013,0.029,0
2025,8,16,28:04.4,-1.962,106,0,-0.1,0,-0.99,-0.02,0.02,0.99997,0.00043,0,-0.00013,0.029,0
2025,8,16,28:04.5,-1.96,108,0,0,0,-0.99,-0.01,0.02,0.99997,0.00043,0,-0.00013,0.029,0
2025,8,16,28:04.5,-1.958,110,0,0,-0.2,-1,-0.02,0.02,0.99997,0.00043,0,-0.00013,0.029,0
2025,8,16,28:04.5,-1.956,112,0.1,0,0,-1,-0.02,0.02,0.99997,0.00043,0,-0.00013,0.03,0
2025,8,16,28:04.5,-1.954,114,0,0,0,-0.99,-0.01,0.02,0.99997,0.00043,0,-0.00013,0.029,0
2025,8,16,28:04.5,-1.952,116,0,0,0,-0.99,-0.01,0.02,0.99997,0.00043,0,-0.00013,0.029,0
2025,8,16,28:04.5,-1.95,118,0,0,-0.1,-0.99,-0.01,0.02,0.99997,0.00043,0,-0.00013,0.029,0
2025,8,16,28:04.5,-1.948,120,0,0,0,-0.99,-0.02,0.01,0.99997,0.00043,0,-0.00013,0.03,0
2025,8,16,28:04.5,-1.946,122,0,0,0,-1,-0.01,0.01,0.99997,0.00043,0,-0.00013,0.029,0
2025,8,16,28:04.5,-1.944,124,0.1,0.1,0,-1,-0.01,0.02,0.99997,0.00043,0,-0.00013,0.029,0
2025,8,16,28:04.5,-1.942,126,0,0,0,-1,0,0.02,0.99997,0.00043,0,-0.00013,0.029,0
2025,8,16,28:04.5,-1.94,128,0,-0.1,0.1,-0.99,-0.03,0.01,0.99997,0.00043,0,-0.00013,0.029,0
2025,8,16,28:04.5,-1.938,130,0,0,0,-0.98,-0.01,0.01,0.99997,0.00043,0,-0.00013,0.029,0
2025,8,16,28:04.5,-1.936,132,0,0,0,-0.99,-0.02,0.02,0.99997,0.00043,0,-0.00013,0.029,0
2025,8,16,28:04.5,-1.934,134,0.1,0,0.2,-0.99,-0.01,0.02,0.99997,0.00043,0,-0.00013,0.029,0
2025,8,16,28:04.5,-1.932,136,0,-0.1,0,-0.99,-0.01,0.01,0.99997,0.00043,0,-0.00013,0.029,0
2025,8,16,28:04.5,-1.93,138,0,0,0,-0.99,-0.02,0.02,0.99997,0.00047,0,-0.00013,0.029,0
2025,8,16,28:04.5,-1.928,140,0.1,0,0,-1,-0.01,0.02,0.99997,0.00047,0,-0.00013,0.03,0
2025,8,16,28:04.5,-1.926,142,0,0,0,-0.99,0,0.01,0.99997,0.00047,0,-0.00013,0.029,0
2025,8,16,28:04.5,-1.924,144,0,0,-0.1,-1,-0.03,0.02,0.99997,0.00047,0,-0.00013,0.029,0
2025,8,16,28:04.5,-1.922,146,0.2,0.2,0,-0.99,-0.02,0.02,0.99997,0.00047,0,-0.00013,0.029,0
2025,8,16,28:04.5,-1.92,148,-0.1,-0.1,0.1,-0.99,-0.02,0.01,0.99997,0.00047,0,-0.00013,0.029,0
2025,8,16,28:04.5,-1.918,150,0,0,0,-1,-0.01,0.02,0.99997,0.00047,0,-0.00013,0.029,0
2025,8,16,28:04.5,-1.916,152,-0.1,0,-0.2,-0.99,-0.01,0.01,0.99997,0.00047,0,-0.00013,0.029,0
2025,8,16,28:04.5,-1.914,154,0,0.1,0,-1,-0.01,0.01,0.99997,0.00047,0,-0.00013,0.029,0
2025,8,16,28:04.5,-1.912,156,0,0,0,-1,-0.01,0.01,0.99997,0.00047,0,-0.00013,0.029,0
2025,8,16,28:04.5,-1.91,158,0,0,0,-1,-0.01,0.01,0.99997,0.00047,0,-0.00013,0.029,0
2025,8,16,28:04.5,-1.908,160,-0.1,-0.1,0,-0.99,-0.02,0.02,0.99997,0.00047,0,-0.00013,0.03,0
2025,8,16,28:04.5,-1.906,162,0,0,0,-0.99,-0.01,0.01,0.99997,0.00047,0,-0.00013,0.03,0
2025,8,16,28:04.5,-1.904,164,0.1,0,0,-0.99,-0.01,0.01,0.99997,0.00047,0,-0.00013,0.029,0
2025,8,16,28:04.5,-1.902,166,0,0,0,-1,-0.02,0.01,0.99997,0.00047,0,-0.00013,0.03,0
2025,8,16,28:04.5,-1.9,168,0,0,0,-0.99,-0.01,0.01,0.99997,0.00047,0,-0.00013,0.029,0
2025,8,16,28:04.5,-1.898,170,-0.1,0,0,-1,-0.02,0.02,0.99997,0.00047,0,-0.00013,0.029,0
2025,8,16,28:04.5,-1.896,172,0,0,0,-1,-0.01,0.01,0.99997,0.00047,0,-0.00013,0.029,0
2025,8,16,28:04.5,-1.894,174,-0.1,0,0.2,-0.99,-0.01,0.02,0.99997,0.00047,0,-0.00013,0.029,0
2025,8,16,28:04.5,-1.892,176,-0.1,0,0.1,-0.99,-0.01,0.02,0.99997,0.00043,0,-0.00013,0.029,0
2025,8,16,28:04.5,-1.89,178,-0.1,0,0,-0.99,-0.01,0.02,0.99997,0.00043,0,-0.00013,0.029,0
2025,8,16,28:04.5,-1.888,180,-0.1,0,0,-0.99,-0.01,0.01,0.99997,0.00043,0,-0.00013,0.029,0
2025,8,16,28:04.5,-1.886,182,-0.2,0,0.1,-0.99,0,0.02,0.99997,0.00043,0,-0.00013,0.029,0
2025,8,16,28:04.5,-1.884,184,0,0,0,-0.99,0,0.02,0.99997,0.00043,0,-0.00013,0.029,0
2025,8,16,28:04.5,-1.882,186,-0.1,0,0.2,-0.98,-0.01,0.01,0.99997,0.00043,0,-0.00013,0.029,0
2025,8,16,28:04.5,-1.88,188,-0.1,0,0.2,-0.99,-0.01,0.02,0.99997,0.00043,0,-0.00013,0.029,0
2025,8,16,28:04.5,-1.878,190,-0.1,0,0,-1,0,0.01,0.99997,0.00043,0,-0.00013,0.029,0
2025,8,16,28:04.5,-1.876,192,-0.1,-0.1,0.2,-1.01,-0.01,0.01,0.99997,0.00043,0,-0.00013,0.029,0
2025,8,16,28:04.5,-1.874,194,-0.1,0,0.2,-1,-0.01,0.01,0.99997,0.00043,0,-0.0001,0.029,0
2025,8,16,28:04.5,-1.872,196,-0.1,0,0.1,-0.99,-0.01,0.01,0.99997,0.00043,0,-0.0001,0.029,0
2025,8,16,28:04.5,-1.87,198,-0.1,0,0.1,-0.99,0,0.02,0.99997,0.00043,0,-0.0001,0.029,0
2025,8,16,28:04.5,-1.868,200,-0.1,0,0,-0.99,0,0.01,0.99997,0.00043,0,-0.0001,0.029,0
2025,8,16,28:04.5,-1.866,202,0,0,0.1,-1,-0.01,0.01,0.99997,0.00043,0,-0.0001,0.029,0
2025,8,16,28:04.5,-1.864,204,-0.1,0,0,-0.99,0,0.01,0.99997,0.00043,0,-0.0001,0.029,0
2025,8,16,28:04.5,-1.862,206,-0.1,0,0,-0.99,0,0.01,0.99997,0.0004,0,-0.0001,0.029,0
2025,8,16,28:04.6,-1.86,208,-0.1,0,0,-0.99,-0.01,0.01,0.99997,0.0004,0,-0.0001,0.029,0
2025,8,16,28:04.6,-1.858,210,-0.1,0,0,-0.99,0,0.02,0.99997,0.0004,0,-0.0001,0.029,0
2025,8,16,28:04.6,-1.856,212,0,0,0.1,-0.99,-0.01,0.02,0.99997,0.0004,0,-0.0001,0.029,0
2025,8,16,28:04.6,-1.854,214,-0.1,0,0,-1,0,0.02,0.99997,0.0004,0,-0.0001,0.029,0
2025,8,16,28:04.6,-1.852,216,-0.1,-0.1,0,-0.99,-0.01,0.03,0.99997,0.0004,0,-0.0001,0.029,0
2025,8,16,28:04.6,-1.85,218,0,0,0,-1,0,0.02,0.99997,0.0004,0,-0.0001,0.029,0
2025,8,16,28:04.6,-1.848,220,0,0,0,-0.99,0,0.02,0.99997,0.0004,0,-0.0001,0.029,0
2025,8,16,28:04.6,-1.846,222,0,0,0.1,-0.99,0,0.02,0.99997,0.0004,0,-0.0001,0.029,0
2025,8,16,28:04.6,-1.844,224,-0.1,0,0,-1,-0.02,0.02,0.99997,0.0004,0,-0.0001,0.029,0
2025,8,16,28:04.6,-1.842,226,0,0.1,0,-0.99,0,0.01,0.99997,0.0004,0,-0.0001,0.03,0
2025,8,16,28:04.6,-1.84,228,-0.1,0,0.1,-0.99,0,0.04,0.99997,0.0004,0,-0.0001,0.029,0
2025,8,16,28:04.6,-1.838,230,-15,-2,0.7,-1.03,0.16,0.04,1,0.00013,0,-0.0001,0.029,0
2025,8,16,28:04.6,-1.836,232,-15.2,-2,-1.3,-1.13,0.17,-0.03,1,-0.0001,-0.00003,-0.0001,0.029,0
2025,8,16,28:04.6,-1.834,234,-5,-0.9,-3.1,-1.15,0.15,-0.07,1,-0.0002,-0.00007,-0.00017,0.029,0
2025,8,16,28:04.6,-1.832,236,1.7,0,-3.2,-1.16,0.13,-0.09,1,-0.00017,-0.00007,-0.00023,0.029,0
2025,8,16,28:04.6,-1.83,238,13.1,1.5,-2,-1.16,0.09,-0.13,1,0.00003,-0.00003,-0.00027,0.029,0
2025,8,16,28:04.6,-1.828,240,16.1,1.8,0.3,-1.14,0.04,-0.15,0.99997,0.00033,0,-0.00027,0.029,0
2025,8,16,28:04.6,-1.826,242,13.9,1.4,1.5,-1.13,0.02,-0.16,0.99997,0.00057,0,-0.00023,0.029,0
2025,8,16,28:04.6,-1.824,244,4.4,1,3.2,-1.1,-0.01,-0.16,0.99997,0.00063,0,-0.00017,0.029,0
2025,8,16,28:04.6,-1.822,246,-7.6,-0.1,2.9,-1.07,-0.05,-0.15,0.99997,0.0005,0,-0.00013,0.029,0
2025,8,16,28:04.6,-1.82,248,-13,-1.1,1.9,-1.05,-0.08,-0.14,1,0.0003,0,-0.00007,0.029,0
2025,8,16,28:04.6,-1.818,0,-16.7,-2.2,-0.3,-1.01,-0.13,-0.13,1,0,-0.00003,-0.0001,0.029,0
2025,8,16,28:04.6,-1.816,2,-14.4,-2.1,-1.7,-1,-0.14,-0.1,1,-0.00023,-0.00007,-0.00013,0.029,0
2025,8,16,28:04.6,-1.814,4,-3.7,-0.8,-3.2,-0.95,-0.17,-0.07,1,-0.0003,-0.00007,-0.00017,0.029,0
2025,8,16,28:04.6,-1.812,6,9.1,1,-2.7,-0.91,-0.2,-0.01,1,-0.00013,-0.00007,-0.00023,0.029,0
2025,8,16,28:04.6,-1.81,8,14,1.7,-1.8,-0.89,-0.19,0,1,0.00007,-0.00003,-0.00027,0.029,0
2025,8,16,28:04.6,-1.808,10,15.8,1.6,0.5,-0.87,-0.18,0.05,0.99997,0.00037,0,-0.00023,0.029,0
2025,8,16,28:04.6,-1.806,12,8.9,1.2,2.7,-0.84,-0.18,0.1,0.99997,0.0005,0,-0.0002,0.029,0
2025,8,16,28:04.6,-1.804,14,3.5,0.9,3.2,-0.84,-0.15,0.13,0.99997,0.00057,0,-0.00013,0.029,0
2025,8,16,28:04.6,-1.802,16,-8.8,-0.3,2.6,-0.84,-0.12,0.16,0.99997,0.00043,0,-0.0001,0.029,0
2025,8,16,28:04.6,-1.8,18,-13.7,-1.3,1.7,-0.84,-0.09,0.16,1,0.00017,0,-0.00007,0.029,0
2025,8,16,28:04.6,-1.798,20,-16.5,-2.4,-0.6,-0.85,-0.05,0.18,1,-0.00007,-0.00003,-0.00007,0.03,0
2025,8,16,28:04.6,-1.796,22,-8.8,-1.3,-2.7,-0.87,-0.01,0.19,1,-0.00023,-0.00007,-0.00013,0.029,0
2025,8,16,28:04.6,-1.794,24,-2.3,-0.6,-3.2,-0.89,0,0.18,1,-0.00027,-0.00007,-0.00017,0.029,0
2025,8,16,28:04.6,-1.792,26,10.3,1.1,-2.5,-0.92,0.05,0.18,1,-0.0001,-0.00003,-0.00023,0.029,0
2025,8,16,28:04.6,-1.79,28,16.3,1.8,-0.4,-0.96,0.08,0.17,1,0.00017,0,-0.00023,0.029,0
2025,8,16,28:04.6,-1.788,30,15.4,1.6,0.8,-0.98,0.11,0.16,0.99997,0.00043,0,-0.00023,0.029,0
2025,8,16,28:04.6,-1.786,32,8,1.2,2.9,-1.03,0.14,0.12,0.99997,0.00057,0,-0.00017,0.029,0
2025,8,16,28:04.6,-1.784,34,-4,0.3,3.1,-1.07,0.15,0.07,0.99997,0.0005,0,-0.0001,0.029,0
2025,8,16,28:04.6,-1.782,36,-10,-0.5,2.5,-1.08,0.17,0.04,1,0.00033,0,-0.00007,0.029,0
2025,8,16,28:04.6,-1.78,38,-16.7,-2.1,0.2,-1.11,0.16,0,1,0.00003,0,-0.00007,0.029,0
2025,8,16,28:04.6,-1.778,40,-16.3,-2.4,-0.9,-1.12,0.17,-0.03,1,-0.00023,-0.00003,-0.00007,0.029,0
2025,8,16,28:04.6,-1.776,42,-7.9,-1.3,-2.9,-1.14,0.15,-0.07,0.99997,-0.00037,-0.00007,-0.00013,0.029,0
2025,8,16,28:04.6,-1.774,44,5.4,0.4,-3,-1.16,0.1,-0.1,0.99997,-0.00027,-0.00007,-0.0002,0.029,0
2025,8,16,28:04.6,-1.772,46,11.1,1.3,-2.4,-1.15,0.09,-0.13,1,-0.00007,-0.00003,-0.00023,0.029,0
2025,8,16,28:04.6,-1.77,48,16.2,1.7,-0.1,-1.14,0.05,-0.15,1,0.00017,0,-0.00023,0.029,0
2025,8,16,28:04.6,-1.768,50,11.8,1.3,2.3,-1.13,0,-0.16,0.99997,0.0004,0,-0.0002,0.029,0
2025,8,16,28:04.6,-1.766,52,6.8,1,3.1,-1.11,-0.02,-0.16,0.99997,0.0005,0,-0.00013,0.029,0
2025,8,16,28:04.6,-1.764,54,-5.2,0.2,3,-1.08,-0.06,-0.15,0.99997,0.00043,0,-0.00007,0.03,0
2025,8,16,28:04.6,-1.762,56,-11.1,-0.8,2.3,-1.05,-0.07,-0.14,1,0.00023,0,-0.00003,0.029,0
2025,8,16,28:04.7,-1.76,58,-17,-2.3,0.1,-1.02,-0.13,-0.14,1,-0.00003,-0.00003,-0.00003,0.029,0
2025,8,16,28:04.7,-1.758,60,-12,-1.7,-2.2,-0.98,-0.16,-0.09,1,-0.00027,-0.00003,-0.00007,0.029,0
2025,8,16,28:04.7,-1.756,62,-6.6,-1.2,-3,-0.95,-0.17,-0.07,0.99997,-0.00037,-0.00007,-0.00013,0.029,0
2025,8,16,28:04.7,-1.754,64,6.5,0.6,-3,-0.91,-0.19,-0.03,1,-0.00027,-0.00007,-0.0002,0.029,0
2025,8,16,28:04.7,-1.752,66,15.4,1.7,-1.1,-0.88,-0.2,0.02,1,0,-0.00003,-0.0002,0.029,0
2025,8,16,28:04.7,-1.75,68,16.1,1.7,0,-0.87,-0.18,0.04,1,0.00027,0,-0.0002,0.029,0
2025,8,16,28:04.7,-1.748,70,10.8,1.2,2.3,-0.85,-0.18,0.09,0.99997,0.00047,0,-0.00017,0.029,0
2025,8,16,28:04.7,-1.746,72,-0.1,0.6,3.2,-0.83,-0.15,0.13,0.99997,0.00047,0,-0.0001,0.029,0
2025,8,16,28:04.7,-1.744,74,-6.3,0,3,-0.83,-0.13,0.15,1,0.00033,0,-0.00007,0.029,0
2025,8,16,28:04.7,-1.742,76,-15.6,-1.7,1,-0.84,-0.09,0.18,1,0.00007,0,-0.00003,0.029,0
2025,8,16,28:04.7,-1.74,78,-16.9,-2.2,-0.2,-0.85,-0.05,0.17,1,-0.0002,-0.00003,-0.00003,0.029,0
2025,8,16,28:04.7,-1.738,80,-11.3,-1.8,-2.4,-0.87,-0.02,0.19,0.99997,-0.0004,-0.00007,-0.00007,0.029,0
2025,8,16,28:04.7,-1.736,82,1.4,0,-3.1,-0.9,0.01,0.2,0.99997,-0.00037,-0.00007,-0.00013,0.029,0
2025,8,16,28:04.7,-1.734,84,7.9,0.9,-2.7,-0.91,0.04,0.19,1,-0.00023,-0.00007,-0.0002,0.029,0
2025,8,16,28:04.7,-1.732,86,15.6,1.8,-0.9,-0.95,0.08,0.18,1,0,-0.00003,-0.0002,0.029,0
2025,8,16,28:04.7,-1.73,88,14.9,1.2,1.1,-1.02,0.1,0.07,1,0.00027,0,-0.00017,0.029,0
2025,8,16,28:04.7,-1.728,90,1.9,0,0.3,-1.05,0,0,1,0.0003,0,-0.00017,0.029,0
2025,8,16,28:04.7,-1.726,92,0,0,0,-1,-0.02,0.02,1,0.0003,0,-0.00017,0.029,0
2025,8,16,28:04.7,-1.724,94,-0.1,0,0,-1,0,0.02,1,0.0003,0,-0.00017,0.029,0
2025,8,16,28:04.7,-1.722,96,0,0,0,-1,-0.01,0.01,1,0.0003,0,-0.00017,0.029,0
2025,8,16,28:04.7,-1.72,98,-0.1,0,0,-1,-0.02,0.01,1,0.0003,0,-0.00017,0.029,0
2025,8,16,28:04.7,-1.718,100,0.1,0.1,0,-0.99,0,0.01,1,0.0003,0,-0.00017,0.03,0
2025,8,16,28:04.7,-1.716,102,0,0,0,-1,-0.01,0.01,1,0.0003,0,-0.00017,0.029,0
2025,8,16,28:04.7,-1.714,104,-0.1,-0.1,0,-0.99,-0.02,0.01,1,0.0003,0,-0.00017,0.029,0
2025,8,16,28:04.7,-1.712,106,0,0,-0.1,-0.99,-0.01,0.01,1,0.0003,0,-0.00017,0.029,0
2025,8,16,28:04.7,-1.71,108,-0.1,0,-0.2,-0.99,-0.01,0.02,1,0.0003,0,-0.00017,0.029,0
2025,8,16,28:04.7,-1.708,110,0,0,0,-0.99,-0.01,0.01,1,0.0003,0,-0.00017,0.029,0
2025,8,16,28:04.7,-1.706,112,0,0,0,-0.99,-0.01,0.01,1,0.0003,0,-0.00017,0.029,0
2025,8,16,28:04.7,-1.704,114,0,-0.1,0,-1,-0.01,0.01,1,0.0003,0,-0.00017,0.029,0
2025,8,16,28:04.7,-1.702,116,0.1,0.1,0,-1,-0.01,0.01,1,0.0003,0,-0.00017,0.029,0
2025,8,16,28:04.7,-1.7,118,0,0,0,-0.99,-0.02,0.01,1,0.0003,0,-0.00017,0.029,0
2025,8,16,28:04.7,-1.698,120,0,0,0,-0.99,-0.01,0.01,1,0.0003,0,-0.00017,0.029,0
2025,8,16,28:04.7,-1.696,122,0,0,-0.1,-1,-0.02,0.01,1,0.0003,0,-0.00017,0.029,0
2025,8,16,28:04.7,-1.694,124,-0.1,0,-0.1,-1,-0.01,0.01,1,0.0003,0,-0.00017,0.029,0
2025,8,16,28:04.7,-1.692,126,0,-0.1,0,-1,0,0.01,1,0.0003,0,-0.00017,0.029,0
2025,8,16,28:04.7,-1.69,128,0,0,-0.2,-1,-0.01,0.01,1,0.0003,0,-0.0002,0.029,0
2025,8,16,28:04.7,-1.688,130,0,-0.1,0,-0.99,-0.01,0.01,1,0.0003,0,-0.0002,0.03,0
2025,8,16,28:04.7,-1.686,132,0,-0.1,-0.1,-1,0,0.01,1,0.0003,0,-0.0002,0.029,0
2025,8,16,28:04.7,-1.684,134,0,0,-0.1,-1,-0.01,0.01,1,0.0003,0,-0.0002,0.029,0
2025,8,16,28:04.7,-1.682,136,0,-0.1,-0.1,-0.99,-0.02,0.02,1,0.0003,0,-0.0002,0.029,0
2025,8,16,28:04.7,-1.68,138,0,0,0,-0.99,-0.02,0.01,1,0.0003,0,-0.0002,0.029,0
2025,8,16,28:04.7,-1.678,140,0,0,0,-1,-0.02,0.01,1,0.0003,0,-0.0002,0.029,0
2025,8,16,28:04.7,-1.676,142,0,0,0,-0.99,-0.01,0.01,1,0.0003,0,-0.0002,0.029,0
2025,8,16,28:04.7,-1.674,144,0.1,0,0.1,-0.99,-0.01,0.02,1,0.0003,0,-0.0002,0.029,0
2025,8,16,28:04.7,-1.672,146,0,0,0,-1,-0.02,0.01,1,0.0003,0,-0.0002,0.029,0
2025,8,16,28:04.7,-1.67,148,0,0,-0.1,-0.99,-0.01,0.02,1,0.0003,0,-0.0002,0.029,0
2025,8,16,28:04.7,-1.668,150,0,0,0,-1,-0.02,0.02,1,0.0003,0,-0.0002,0.029,0
2025,8,16,28:04.7,-1.666,152,0,0,0,-0.99,-0.01,0.01,1,0.0003,0,-0.0002,0.029,0
2025,8,16,28:04.7,-1.664,154,0,0,0,-0.99,0,0.01,1,0.0003,0,-0.0002,0.029,0
2025,8,16,28:04.7,-1.662,156,0,0,-0.2,-1,-0.02,0.01,1,0.0003,0,-0.0002,0.029,0
2025,8,16,28:04.8,-1.66,158,0.1,0,-0.1,-0.99,-0.01,0.01,1,0.0003,0,-0.0002,0.029,0
2025,8,16,28:04.8,-1.658,160,0,0,0,-1,-0.02,0.01,1,0.00033,0,-0.0002,0.029,0
2025,8,16,28:04.8,-1.656,162,0,0,0,-1,-0.01,0.02,1,0.0003,0,-0.0002,0.029,0
2025,8,16,28:04.8,-1.654,164,0,-0.1,0,-0.99,0,0.02,1,0.00033,-0.00003,-0.0002,0.029,0
2025,8,16,28:04.8,-1.652,166,0.1,-0.1,0,-1,-0.01,0.02,1,0.00033,-0.00003,-0.0002,0.029,0
2025,8,16,28:04.8,-1.65,168,-0.1,-0.1,-0.1,-0.99,0,0.02,1,0.00033,-0.00003,-0.0002,0.029,0
2025,8,16,28:04.8,-1.648,170,0.2,0,0,-1,-0.01,0.01,1,0.00033,-0.00003,-0.0002,0.029,0
2025,8,16,28:04.8,-1.646,172,-0.1,-0.1,0,-1,-0.01,0.02,1,0.00033,-0.00003,-0.0002,0.029,0
2025,8,16,28:04.8,-1.644,174,0,-0.1,0,-1,0,0.01,1,0.00033,-0.00003,-0.0002,0.029,0
2025,8,16,28:04.8,-1.642,176,0,-0.1,0,-0.99,-0.02,0.01,1,0.00033,-0.00003,-0.0002,0.03,0
2025,8,16,28:04.8,-1.64,178,0,0,0,-0.99,-0.01,0.02,1,0.00033,-0.00003,-0.0002,0.03,0
2025,8,16,28:04.8,-1.638,180,0,0,0,-0.99,0,0.01,1,0.00033,-0.00003,-0.0002,0.029,0
2025,8,16,28:04.8,-1.636,182,0,-0.1,0,-0.99,-0.01,0.02,1,0.00033,-0.00003,-0.0002,0.029,0
2025,8,16,28:04.8,-1.634,184,-0.1,-0.1,0,-1,-0.01,0.02,1,0.00033,-0.00003,-0.0002,0.029,0
2025,8,16,28:04.8,-1.632,186,0,-0.1,0,-0.99,0,0,1,0.00033,-0.00003,-0.0002,0.03,0
2025,8,16,28:04.8,-1.63,188,0,0,0,-1,-0.01,0.01,1,0.00033,-0.00003,-0.0002,0.029,0
2025,8,16,28:04.8,-1.628,190,0,0,0,-0.99,-0.01,0.02,1,0.00033,-0.00003,-0.0002,0.029,0
2025,8,16,28:04.8,-1.626,192,0,0,0,-0.99,-0.01,0.01,1,0.00033,-0.00003,-0.0002,0.03,0
2025,8,16,28:04.8,-1.624,194,0,-0.1,0,-0.98,0,0.01,1,0.00033,-0.00003,-0.0002,0.029,0
2025,8,16,28:04.8,-1.622,196,0,-0.1,0,-1,0,0.02,1,0.00033,-0.00003,-0.0002,0.029,0
2025,8,16,28:04.8,-1.62,198,0.1,0,0,-1.01,-0.02,0.02,1,0.00033,-0.00003,-0.0002,0.029,0
2025,8,16,28:04.8,-1.618,200,0,0,0,-0.99,-0.01,0.02,1,0.00033,-0.00003,-0.0002,0.029,0
2025,8,16,28:04.8,-1.616,202,0,0,0,-1,0,0.01,1,0.00033,-0.00003,-0.0002,0.029,0
2025,8,16,28:04.8,-1.614,204,0,0,0,-1,-0.01,0.01,1,0.00033,-0.00003,-0.0002,0.029,0
2025,8,16,28:04.8,-1.612,206,-0.1,-0.1,0,-1,-0.01,0.01,1,0.00033,-0.00003,-0.0002,0.029,0
2025,8,16,28:04.8,-1.61,208,-0.1,0,0,-0.99,0,0.02,1,0.00033,-0.00003,-0.0002,0.029,0
2025,8,16,28:04.8,-1.608,210,0,0,0,-1,-0.01,0.02,1,0.00033,-0.00003,-0.0002,0.029,0
2025,8,16,28:04.8,-1.606,212,0,-0.1,0,-1,0,0.02,1,0.0003,-0.00003,-0.0002,0.029,0
2025,8,16,28:04.8,-1.604,214,-0.1,-0.1,0.1,-0.99,-0.02,0.02,1,0.0003,-0.00003,-0.0002,0.029,0
2025,8,16,28:04.8,-1.602,216,0,0,-0.1,-0.99,-0.01,0.02,1,0.0003,-0.00003,-0.0002,0.029,0
2025,8,16,28:04.8,-1.6,218,-0.3,-0.3,0,-1,0,0.02,1,0.0003,-0.00007,-0.0002,0.029,0
2025,8,16,28:04.8,-1.598,220,-7.1,-6.5,-0.1,-0.99,-0.01,0.01,1,0.00017,-0.00017,-0.0002,0.029,0
2025,8,16,28:04.8,-1.596,222,1.3,1,0,-0.99,0,0.02,1,0.0002,-0.00013,-0.0002,0.029,0
2025,8,16,28:04.8,-1.594,224,5.5,4.7,0,-0.98,-0.01,0.02,1,0.0003,-0.00007,-0.0002,0.029,0
2025,8,16,28:04.8,-1.592,226,-3,-2.4,0,-0.99,-0.03,0.02,1,0.00023,-0.0001,-0.00023,0.029,0
2025,8,16,28:04.8,-1.59,228,-4.1,-3.4,-0.2,-0.99,-0.01,0.01,1,0.00017,-0.00017,-0.00023,0.029,0
2025,8,16,28:04.8,-1.588,230,8.4,6.9,0,-1,0,0.01,1,0.00033,-0.00003,-0.00023,0.029,0
2025,8,16,28:04.8,-1.586,232,2.3,2,0.1,-1,-0.01,0.02,0.99997,0.00037,0,-0.0002,0.029,0
2025,8,16,28:04.8,-1.584,234,-8,-6.6,-0.1,-1,-0.01,0.01,0.99997,0.00023,-0.00013,-0.00023,0.029,0
2025,8,16,28:04.8,-1.582,236,-0.8,-0.7,0,-1,-0.01,0.02,0.99997,0.0002,-0.00013,-0.00023,0.029,0
2025,8,16,28:04.8,-1.58,238,7,5.8,0,-1,0,0.01,0.99997,0.00033,-0.00003,-0.0002,0.029,0
2025,8,16,28:04.8,-1.578,240,-8.3,-6.6,-0.1,-0.99,-0.01,0.01,1,0.0002,-0.00017,-0.00023,0.029,0
2025,8,16,28:04.8,-1.576,242,-5.7,-4.7,0,-0.98,-0.01,0,1,0.0001,-0.00023,-0.00023,0.029,0
2025,8,16,28:04.8,-1.574,244,8.6,7,0,-0.98,-0.01,0.02,1,0.00023,-0.00013,-0.00023,0.029,0
2025,8,16,28:04.8,-1.572,246,-4.9,-3.8,0,-0.99,-0.01,0.02,1,0.00017,-0.0002,-0.00023,0.029,0
2025,8,16,28:04.8,-1.57,248,-8.5,-7.1,0,-0.99,-0.02,0.03,1,0,-0.0003,-0.00023,0.029,0
2025,8,16,28:04.8,-1.568,0,6.4,5.2,0,-1,-0.01,0.01,1,0.0001,-0.00023,-0.00023,0.029,0
2025,8,16,28:04.8,-1.566,2,0.7,0.6,0,-1,-0.02,0.01,1,0.00013,-0.0002,-0.00023,0.029,0
2025,8,16,28:04.8,-1.564,4,-7.4,-6.1,0,-1.01,-0.01,0.02,1,0,-0.0003,-0.00023,0.029,0
2025,8,16,28:04.8,-1.562,6,1.3,0.9,0,-0.99,0,0.01,1,0.00003,-0.0003,-0.00023,0.029,0
2025,8,16,28:04.8,-1.56,8,8.2,6.7,0.1,-0.99,0,0,1,0.00017,-0.00017,-0.00023,0.029,0
2025,8,16,28:04.9,-1.558,10,-3,-2.4,-0.2,-1,0,0.01,1,0.0001,-0.00023,-0.00023,0.029,0
2025,8,16,28:04.9,-1.556,12,-4.3,-3.4,0,-0.99,-0.01,0.02,1,0.00003,-0.00027,-0.00023,0.029,0
2025,8,16,28:04.9,-1.554,14,4.7,3.6,0,-0.97,0,0.02,1,0.00013,-0.00023,-0.00023,0.029,0
2025,8,16,28:04.9,-1.552,16,2.6,2.2,0,-0.99,-0.01,0.02,1,0.00017,-0.00017,-0.00023,0.029,0
2025,8,16,28:04.9,-1.55,18,-8.1,-6.6,0,-0.99,-0.02,0.01,1,0.00003,-0.0003,-0.00023,0.029,0
2025,8,16,28:04.9,-1.548,20,-0.6,-0.6,0,-1,-0.02,0.02,1,0,-0.0003,-0.00023,0.029,0
2025,8,16,28:04.9,-1.546,22,7.1,5.9,0.1,-1,-0.01,0.01,1,0.00013,-0.0002,-0.00023,0.029,0
2025,8,16,28:04.9,-1.544,24,-0.9,-0.8,-0.1,-1.01,-0.01,0.02,1,0.00013,-0.00023,-0.00023,0.029,0
2025,8,16,28:04.9,-1.542,26,-6,-5,0,-1.01,0,0.02,1,0,-0.0003,-0.00023,0.029,0
2025,8,16,28:04.9,-1.54,28,8.4,7,0,-0.99,-0.01,0.02,1,0.00017,-0.00017,-0.00023,0.029,0
2025,8,16,28:04.9,-1.538,30,4.4,3.7,0,-0.99,0,0.02,1,0.00023,-0.0001,-0.00023,0.029,0
2025,8,16,28:04.9,-1.536,32,-8.4,-6.9,-0.1,-0.98,0,0.02,1,0.0001,-0.00023,-0.00023,0.03,0
2025,8,16,28:04.9,-1.534,34,6.1,5,0.3,-0.99,-0.02,0.01,1,0.0002,-0.00013,-0.00023,0.029,0
2025,8,16,28:04.9,-1.532,36,8,6.7,0,-0.99,-0.01,0.02,0.99997,0.00033,-0.00003,-0.00023,0.029,0
2025,8,16,28:04.9,-1.53,38,-7.2,-5.9,-0.2,-1,-0.01,0.01,0.99997,0.0002,-0.00013,-0.00023,0.029,0
2025,8,16,28:04.9,-1.528,40,0.9,0.8,0,-1,-0.02,0.02,0.99997,0.00023,-0.00013,-0.00023,0.029,0
2025,8,16,28:04.9,-1.526,42,8.2,6.7,0,-1,-0.01,0.01,0.99997,0.00037,0,-0.00023,0.029,0
2025,8,16,28:04.9,-1.524,44,-3.1,-2.3,0.1,-1,-0.01,0.02,0.99997,0.00033,-0.00003,-0.00023,0.029,0
2025,8,16,28:04.9,-1.522,46,-8.5,-6.9,-0.1,-1,0,0.02,1,0.00017,-0.00017,-0.00023,0.029,0
2025,8,16,28:04.9,-1.52,48,4.6,3.7,0,-0.99,0,0.02,1,0.00027,-0.0001,-0.00023,0.029,0
2025,8,16,28:04.9,-1.518,50,2.8,2.5,0.1,-1,0,0.02,1,0.0003,-0.00007,-0.00023,0.029,0
2025,8,16,28:04.9,-1.516,52,-5.9,-4.8,0,-0.99,0,0.02,1,-0.0001,-0.00007,0,0.029,0
2025,8,16,28:04.9,-1.514,54,-0.9,-0.8,0.2,-0.99,-0.01,0.01,1,-0.0001,-0.00007,0,0.029,0
2025,8,16,28:04.9,-1.512,56,7.2,6,0,-0.98,-0.01,0.02,1,0,0,0,0.029,0
2025,8,16,28:04.9,-1.51,58,-0.8,-0.6,0,-0.99,-0.02,0.01,1,0,0,0,0.029,0
2025,8,16,28:04.9,-1.508,60,-6.2,-5,0,-1,-0.02,0.02,1,-0.0001,-0.00007,0,0.029,0
2025,8,16,28:04.9,-1.506,62,8.6,7.1,0.2,-1.01,-0.02,0.02,1,0.00003,0,0,0.029,0
2025,8,16,28:04.9,-1.504,64,4.6,3.8,0,-1,-0.02,0.02,1,0.0001,0.00007,0,0.029,0
2025,8,16,28:04.9,-1.502,66,-8.4,-7,0,-1,-0.01,0.02,1,0,0,0,0.029,0
2025,8,16,28:04.9,-1.5,68,-2.8,-2.2,0,-0.99,0,0.03,1,-0.00007,-0.00003,0,0.029,0
2025,8,16,28:04.9,-1.498,70,7.9,6.7,0,-1,0,0.01,1,0.00003,0.00003,0,0.028,0
2025,8,16,28:04.9,-1.496,72,-7.2,-5.7,0,-0.98,-0.01,0.02,1,-0.00007,-0.00003,0,0.029,0
2025,8,16,28:04.9,-1.494,74,-7.3,-5.9,-0.1,-0.99,0,0,1,-0.00017,-0.00013,0,0.029,0
2025,8,16,28:04.9,-1.492,76,8.1,6.5,0,-0.99,-0.02,0.02,1,-0.00003,-0.00003,0,0.029,0
2025,8,16,28:04.9,-1.49,78,-0.8,-0.8,0,-0.99,-0.02,0.03,1,-0.00007,-0.00003,0,0.029,0
2025,8,16,28:04.9,-1.488,80,0.7,0.3,0,-0.99,-0.01,0.01,1,-0.00003,-0.00003,0,0.029,0
2025,8,16,28:04.9,-1.486,82,0,0,0.1,-1,-0.01,0.01,1,-0.00003,-0.00003,0,0.029,0
2025,8,16,28:04.9,-1.484,84,-0.1,0,0,-1,-0.01,0.02,1,-0.00003,-0.00003,0,0.03,0
2025,8,16,28:04.9,-1.482,86,0,0,0,-0.99,0,0.01,1,-0.00003,-0.00003,0,0.029,0
2025,8,16,28:04.9,-1.48,88,-0.1,0,0.1,-0.99,-0.02,0.02,1,-0.00003,-0.00003,0,0.029,0
2025,8,16,28:04.9,-1.478,90,0,0,0,-0.99,-0.01,0.02,1,-0.00003,-0.00003,0,0.029,0
2025,8,16,28:04.9,-1.476,92,-0.1,0,0,-0.99,-0.02,0.01,1,-0.00003,-0.00003,0,0.029,0
2025,8,16,28:04.9,-1.474,94,0,0,0,-0.99,-0.02,0.01,1,-0.00003,-0.00003,0,0.029,0
2025,8,16,28:04.9,-1.472,96,-0.1,0,-0.1,-0.99,-0.01,0.01,1,-0.00003,-0.00003,0,0.029,0
2025,8,16,28:04.9,-1.47,98,0,0,0,-0.99,-0.01,0.02,1,-0.00003,-0.00003,0,0.029,0
2025,8,16,28:04.9,-1.468,100,0,0,0,-1,-0.02,0.01,1,-0.00003,-0.00003,0,0.029,0
2025,8,16,28:04.9,-1.466,102,0,0,0,-0.99,-0.01,0.02,1,-0.00003,-0.00003,0,0.029,0
2025,8,16,28:04.9,-1.464,104,0,0,0,-0.99,-0.01,0.02,1,-0.00003,-0.00003,0,0.029,0
2025,8,16,28:04.9,-1.462,106,0,0,0,-0.99,0,0.01,1,-0.00003,-0.00003,0,0.029,0
2025,8,16,28:04.9,-1.46,108,0,0,0,-1,-0.02,0.01,1,-0.00003,-0.00003,0,0.029,0
2025,8,16,28:05.0,-1.458,110,-0.1,0,0,-0.99,-0.01,0.02,1,-0.00007,-0.00003,0,0.03,0
2025,8,16,28:05.0,-1.456,112,0,0,0,-0.99,0,0.02,1,-0.00007,-0.00003,0,0.029,0
2025,8,16,28:05.0,-1.454,114,-0.1,0,0,-0.98,-0.01,0.01,1,-0.00007,-0.00003,0,0.029,0
2025,8,16,28:05.0,-1.452,116,0.1,0,0.2,-0.99,-0.02,0.02,1,-0.00007,-0.00003,0,0.029,0
2025,8,16,28:05.0,-1.45,118,0,0,0,-1,-0.01,0.01,1,-0.00007,-0.00003,0,0.029,0
2025,8,16,28:05.0,-1.448,120,0,-0.1,0,-0.99,-0.02,0.02,1,-0.00007,-0.00003,0,0.029,0
2025,8,16,28:05.0,-1.446,122,-0.1,0,0,-1,-0.01,0.01,1,-0.00007,-0.00003,0,0.029,0
2025,8,16,28:05.0,-1.444,124,0,0.2,0,-1,-0.01,0.01,1,-0.00007,-0.00003,0,0.029,0
2025,8,16,28:05.0,-1.442,126,0.1,0,0,-1,-0.01,0.02,1,-0.00007,-0.00003,0,0.029,0
2025,8,16,28:05.0,-1.44,128,-0.1,0,0.1,-0.99,0,0.01,1,-0.00007,-0.00003,0,0.029,0
2025,8,16,28:05.0,-1.438,130,0,0,0,-1,-0.02,0.01,1,-0.00007,-0.00003,0,0.03,0
2025,8,16,28:05.0,-1.436,132,0,0,-0.1,-1,-0.01,0.02,1,-0.00007,-0.00003,0,0.029,0
2025,8,16,28:05.0,-1.434,134,0,0,0.2,-1,-0.01,0.02,1,-0.00007,-0.00003,0,0.029,0
2025,8,16,28:05.0,-1.432,136,0,0,0.1,-0.99,-0.01,0.01,1,-0.00007,-0.00003,0,0.029,0
2025,8,16,28:05.0,-1.43,138,-0.1,0,0,-0.99,-0.01,0.01,1,-0.00007,-0.00003,0,0.029,0
2025,8,16,28:05.0,-1.428,140,0,0,0,-1,-0.02,0.01,1,-0.00007,-0.00003,0,0.029,0
2025,8,16,28:05.0,-1.426,142,0,0,0.2,-0.99,-0.01,0.02,1,-0.00007,-0.00003,0,0.03,0
2025,8,16,28:05.0,-1.424,144,0,0,0,-0.99,-0.01,0.02,1,-0.00007,0,0,0.029,0
2025,8,16,28:05.0,-1.422,146,0,0,0,-0.99,-0.02,0.01,1,-0.00007,0,0,0.029,0
2025,8,16,28:05.0,-1.42,148,0,0,0.1,-0.99,-0.01,0.01,1,-0.00007,0,0.00003,0.029,0
2025,8,16,28:05.0,-1.418,150,0,-0.1,0,-1,-0.01,0.02,1,-0.00007,-0.00003,0.00003,0.029,0
2025,8,16,28:05.0,-1.416,152,-0.1,0,0,-0.99,-0.02,0.02,1,-0.00007,-0.00003,0.00003,0.029,0
2025,8,16,28:05.0,-1.414,154,-0.1,0,0,-0.99,-0.01,0.01,1,-0.00007,-0.00003,0.00003,0.029,0
2025,8,16,28:05.0,-1.412,156,-0.1,0,0.1,-0.99,-0.02,0.01,1,-0.00007,-0.00003,0.00003,0.029,0
2025,8,16,28:05.0,-1.41,158,-0.1,0,0,-0.99,-0.01,0.02,1,-0.00007,-0.00003,0.00003,0.029,0
2025,8,16,28:05.0,-1.408,160,-0.1,0,0,-0.99,-0.01,0.02,1,-0.00007,-0.00003,0.00003,0.029,0
2025,8,16,28:05.0,-1.406,162,0,0,0,-0.99,-0.02,0.01,1,-0.00007,0,0.00003,0.029,0
2025,8,16,28:05.0,-1.404,164,0,0,0,-0.99,-0.01,0.02,1,-0.00007,0,0.00003,0.029,0
2025,8,16,28:05.0,-1.402,166,-0.1,0,0,-0.99,-0.01,0.01,1,-0.00007,-0.00003,0.00003,0.028,0
2025,8,16,28:05.0,-1.4,168,0.2,0,0.1,-1,-0.01,0.02,1,-0.00007,0,0.00003,0.029,0
2025,8,16,28:05.0,-1.398,170,0,0,0,-1,-0.01,0.01,1,-0.00007,0,0.00003,0.029,0
2025,8,16,28:05.0,-1.396,172,0,0,0,-1,-0.02,0.02,1,-0.00007,0,0.00003,0.029,0
2025,8,16,28:05.0,-1.394,174,0,0,0,-1,-0.01,0.01,1,-0.00007,0,0.00003,0.029,0
2025,8,16,28:05.0,-1.392,176,0,0,0,-0.99,0,0.02,1,-0.00007,0,0.00003,0.029,0
2025,8,16,28:05.0,-1.39,178,0,0,0.1,-1.01,-0.02,0.01,1,-0.00007,0,0.00003,0.029,0
2025,8,16,28:05.0,-1.388,180,0,0,0,-0.99,-0.02,0.01,1,-0.00007,0,0.00003,0.029,0
2025,8,16,28:05.0,-1.386,182,-0.1,-0.1,0,-0.99,-0.01,0.01,1,-0.00007,-0.00003,0.00003,0.029,0
2025,8,16,28:05.0,-1.384,184,0,0,0,-1,-0.01,0.02,1,-0.00007,0,0.00003,0.029,0
2025,8,16,28:05.0,-1.382,186,-0.1,0,0,-0.99,-0.01,0.02,1,-0.00007,0,0.00003,0.029,0
2025,8,16,28:05.0,-1.38,188,0,0,0,-1,-0.01,0.02,1,-0.00007,0,0.00003,0.029,0
2025,8,16,28:05.0,-1.378,190,0,-0.1,0,-0.99,-0.02,0.02,1,-0.00007,-0.00003,0.00003,0.029,0
2025,8,16,28:05.0,-1.376,192,0,0,-0.2,-1,0,0.01,1,-0.00007,0,0.00003,0.029,0
2025,8,16,28:05.0,-1.374,194,0,0,0,-0.99,-0.01,0.02,1,-0.00007,0,0.00003,0.029,0
2025,8,16,28:05.0,-1.372,196,0,0,0.1,-0.99,-0.01,0.01,1,-0.00007,0,0.00003,0.029,0
2025,8,16,28:05.0,-1.37,198,0,0,0,-0.99,0,0.01,1,-0.00007,0,0.00003,0.029,0
2025,8,16,28:05.0,-1.368,200,0,0,-0.1,-1,-0.02,0.02,1,-0.00007,0,0.00003,0.029,0
2025,8,16,28:05.0,-1.366,202,-0.1,0,0,-0.99,0,0.02,1,-0.00007,0,0.00003,0.029,0
2025,8,16,28:05.0,-1.364,204,0,0,0,-1,-0.02,0.02,1,-0.00007,0,0.00003,0.029,0
2025,8,16,28:05.0,-1.362,206,0,-0.1,0,-0.99,-0.01,0.01,1,-0.00007,-0.00003,0.00003,0.029,0
2025,8,16,28:05.1,-1.36,208,-0.1,-0.3,0,-0.99,-0.02,0.02,1,-0.00007,-0.00003,0.00003,0.029,0
2025,8,16,28:05.1,-1.358,210,-5.3,-4.8,0,-0.98,-0.01,0.02,1,-0.00017,-0.0001,0.00003,0.029,0
2025,8,16,28:05.1,-1.356,212,-2.9,-2.5,0,-1,-0.01,0.02,1,-0.00023,-0.00017,0.00003,0.029,0
2025,8,16,28:05.1,-1.354,214,8.2,6.8,0,-1,-0.01,0.02,1,-0.00007,-0.00003,0.00003,0.029,0
2025,8,16,28:05.1,-1.352,216,1.4,1,0,-1.01,-0.01,0.02,1,-0.00007,0,0.00003,0.029,0
2025,8,16,28:05.1,-1.35,218,-7.4,-6.1,0,-1,0,0.02,1,-0.00017,-0.00013,0.00003,0.029,0
2025,8,16,28:05.1,-1.348,220,7.8,6.4,0,-0.99,0,0.02,1,-0.00003,0,0.00003,0.029,0
2025,8,16,28:05.1,-1.346,222,6.4,5.3,0.1,-1,-0.01,0.01,1,0.00003,0.00003,0.00003,0.029,0
2025,8,16,28:05.1,-1.344,224,-8.3,-6.9,0,-0.98,0,0.01,1,-0.00007,-0.00003,0.00003,0.029,0
2025,8,16,28:05.1,-1.342,226,-4.6,-3.8,0,-0.98,-0.01,0.02,1,-0.00017,-0.0001,0.00003,0.029,0
2025,8,16,28:05.1,-1.34,228,8.5,7,0.1,-0.99,-0.01,0.01,1,0,0,0.00003,0.029,0
2025,8,16,28:05.1,-1.338,230,-5.7,-4.5,-0.1,-0.99,-0.01,0.01,1,-0.0001,-0.00007,0.00003,0.029,0
2025,8,16,28:05.1,-1.336,232,-8.3,-6.8,0,-0.99,-0.02,0.02,1,-0.00027,-0.0002,0.00003,0.029,0
2025,8,16,28:05.1,-1.334,234,7,5.6,0,-1,-0.01,0.02,1,-0.00013,-0.0001,0.00003,0.029,0
2025,8,16,28:05.1,-1.332,236,-0.4,-0.3,0,-1,-0.01,0.02,1,-0.00013,-0.0001,0.00003,0.029,0
2025,8,16,28:05.1,-1.33,238,-8.1,-6.5,-0.1,-1,0,0.01,0.99997,-0.0003,-0.0002,0.00003,0.029,0
2025,8,16,28:05.1,-1.328,240,2.3,1.9,-0.1,-0.99,0,0.02,0.99997,-0.00023,-0.00017,0.00003,0.029,0
2025,8,16,28:05.1,-1.326,242,8.6,7,0,-0.99,-0.01,0.02,1,-0.0001,-0.00007,0.00003,0.029,0
2025,8,16,28:05.1,-1.324,244,-4.1,-3.5,0,-0.99,0,0.01,1,-0.00017,-0.0001,0.00003,0.029,0
2025,8,16,28:05.1,-1.322,246,-3.3,-2.8,0,-0.99,0,0,1,-0.00023,-0.00017,0.00003,0.029,0
2025,8,16,28:05.1,-1.32,248,5.8,4.5,0,-0.97,-0.01,0.02,1,-0.00013,-0.00007,0.00003,0.029,0
2025,8,16,28:05.1,-1.318,0,1.4,1.1,0,-0.99,-0.01,0.01,1,-0.0001,-0.00007,0.00003,0.029,0
2025,8,16,28:05.1,-1.316,2,-7.5,-6.2,0,-0.99,-0.01,0.02,1,-0.00023,-0.00017,0.00003,0.029,0
2025,8,16,28:05.1,-1.314,4,0.5,0.3,0.1,-0.99,-0.02,0.02,1,-0.00023,-0.00017,0.00003,0.029,0
2025,8,16,28:05.1,-1.312,6,6.3,5.2,0,-1,0,0.02,1,-0.0001,-0.00007,0.00003,0.029,0
2025,8,16,28:05.1,-1.31,8,-8.3,-7,0,-1,0,0.01,1,-0.00027,-0.0002,0.00003,0.029,0
2025,8,16,28:05.1,-1.308,10,-5,-4.2,0,-1,0,0.01,0.99997,-0.00033,-0.00027,0.00003,0.029,0
2025,8,16,28:05.1,-1.306,12,8.5,7,0.1,-0.99,0,0.01,1,-0.0002,-0.00013,0.00003,0.029,0
2025,8,16,28:05.1,-1.304,14,3.5,2.8,0,-0.99,0,0.02,1,-0.00013,-0.0001,0.00003,0.029,0
2025,8,16,28:05.1,-1.302,16,-8.3,-6.9,-0.2,-0.98,0,0.01,0.99997,-0.00027,-0.00023,0.00003,0.029,0
2025,8,16,28:05.1,-1.3,18,7,5.6,0,-0.99,-0.01,0.01,1,-0.00017,-0.00013,0.00003,0.029,0
2025,8,16,28:05.1,-1.298,20,7.7,6.1,0.1,-0.99,0,0.02,1,-0.00003,0,0.00003,0.029,0
2025,8,16,28:05.1,-1.296,22,-7.8,-6.4,-0.1,-0.98,-0.01,0.02,1,-0.00017,-0.00013,0.00003,0.029,0
2025,8,16,28:05.1,-1.294,24,2.3,1.7,-0.1,-1,-0.01,0.02,1,-0.0001,-0.0001,0.00003,0.029,0
2025,8,16,28:05.1,-1.292,26,8.6,6.8,0,-1,-0.01,0.02,1,0,0,0.00003,0.029,0
2025,8,16,28:05.1,-1.29,28,-4,-3.3,-0.2,-1,0,0.02,1,-0.00003,-0.00003,0.00003,0.029,0
2025,8,16,28:05.1,-1.288,30,-3.2,-2.9,0,-1,0,0.02,1,-0.0001,-0.0001,0.00003,0.029,0
2025,8,16,28:05.1,-1.286,32,5.6,4.7,0,-1,0,0.02,1,0,0,0.00003,0.029,0
2025,8,16,28:05.1,-1.284,34,1.7,1.2,0,-0.99,0,0.01,1,0,0,0.00003,0.029,0
2025,8,16,28:05.1,-1.282,36,-6.9,-5.5,-0.1,-0.99,0,0.01,1,-0.00007,-0.00007,0,0.029,0
2025,8,16,28:05.1,-1.28,38,0.2,0.2,0,-0.98,0,0.02,1,-0.00007,-0.00007,0,0.029,0
2025,8,16,28:05.1,-1.278,40,6.4,5.3,0,-0.99,-0.01,0.02,1,0,0,0,0.029,0
2025,8,16,28:05.1,-1.276,42,-2,-1.7,0,-0.99,-0.02,0.03,1,0,0,0,0.029,0
2025,8,16,28:05.1,-1.274,44,-5.3,-4.3,0,-1,-0.02,0.02,1,-0.0001,-0.0001,0,0.029,0
2025,8,16,28:05.1,-1.272,46,8.4,6.9,0,-1.01,-0.02,0.01,1,0.00003,0,0,0.029,0
2025,8,16,28:05.1,-1.27,48,3.7,2.8,-0.1,-1,0,0.01,1,0.0001,0.00003,0,0.029,0
2025,8,16,28:05.1,-1.268,50,-8.5,-6.9,0,-1.01,0,0.01,1,-0.00003,-0.00003,0,0.029,0
2025,8,16,28:05.1,-1.266,52,-1.7,-1.5,0,-1,0,0.01,1,-0.00007,-0.00007,0,0.029,0
2025,8,16,28:05.1,-1.264,54,7.7,6.2,0,-0.99,0,0.01,1,0.00003,0,0,0.029,0
2025,8,16,28:05.1,-1.262,56,-7.7,-6.4,-0.2,-0.99,0,0.02,1,-0.00007,-0.00007,0,0.029,0
2025,8,16,28:05.2,-1.26,58,-6.7,-5.5,-0.2,-0.98,0,0.02,1,-0.00017,-0.00017,0,0.029,0
2025,8,16,28:05.2,-1.258,60,8.4,6.8,0,-0.98,0,0.01,1,-0.00003,-0.00003,0,0.029,0
2025,8,16,28:05.2,-1.256,62,-3.6,-3,0,-0.99,-0.01,0.01,1,-0.0001,-0.0001,0,0.029,0
2025,8,16,28:05.2,-1.254,64,-8.7,-7.1,-0.2,-0.99,-0.01,0.02,0.99997,-0.00023,-0.00023,0,0.029,0
2025,8,16,28:05.2,-1.252,66,5.4,4.5,0,-1,0,0.02,1,-0.00013,-0.00013,0,0.029,0
2025,8,16,28:05.2,-1.25,68,4.2,2.9,-0.1,-1,-0.01,0.01,1,-0.00007,-0.0001,0,0.029,0
2025,8,16,28:05.2,-1.248,70,0.8,0.4,0,-0.99,0,0.02,1,-0.00007,-0.0001,0,0.029,0
2025,8,16,28:05.2,-1.246,72,0,0,0,-0.99,-0.01,0.02,1,-0.00007,-0.0001,0,0.029,0
2025,8,16,28:05.2,-1.244,74,0,-0.1,0,-0.99,-0.01,0.01,1,-0.00007,-0.0001,0,0.029,0
2025,8,16,28:05.2,-1.242,76,0,0,0,-0.99,-0.01,0.01,1,-0.00007,-0.0001,0,0.029,0
2025,8,16,28:05.2,-1.24,78,0,0,0,-0.98,-0.01,0.02,1,-0.00007,-0.0001,0,0.029,0
2025,8,16,28:05.2,-1.238,80,0,0,-0.2,-0.99,-0.01,0.02,1,-0.00007,-0.0001,0,0.029,0
2025,8,16,28:05.2,-1.236,82,0,0,0,-0.99,-0.01,0.02,1,-0.00007,-0.0001,0,0.029,0
2025,8,16,28:05.2,-1.234,84,0,0,-0.1,-1,-0.01,0.01,1,-0.00007,-0.0001,0,0.029,0
2025,8,16,28:05.2,-1.232,86,-0.1,-0.1,0,-0.99,0,0.02,1,-0.00007,-0.0001,0,0.029,0
2025,8,16,28:05.2,-1.23,88,0,-0.1,0,-1,-0.01,0.02,1,-0.00007,-0.0001,0,0.029,0
2025,8,16,28:05.2,-1.228,90,0,0,0,-0.99,-0.01,0.01,1,-0.00007,-0.0001,0,0.029,0
2025,8,16,28:05.2,-1.226,92,0,0,0,-0.99,-0.01,0.01,1,-0.00007,-0.0001,0,0.029,0
2025,8,16,28:05.2,-1.224,94,0,0,-0.1,-0.99,-0.01,0.01,1,-0.00007,-0.0001,0,0.029,0
2025,8,16,28:05.2,-1.222,96,0.1,0,0,-1,0,0.02,1,-0.00007,-0.0001,0,0.029,0
2025,8,16,28:05.2,-1.22,98,0,0,0,-0.99,-0.01,0.01,1,-0.00007,-0.0001,0,0.029,0
2025,8,16,28:05.2,-1.218,100,0.1,0,0.1,-0.99,-0.02,0.02,1,-0.00003,-0.0001,0,0.029,0
2025,8,16,28:05.2,-1.216,102,0,0,0,-0.99,-0.01,0.01,1,-0.00003,-0.0001,0,0.029,0
2025,8,16,28:05.2,-1.214,104,0.1,0,0,-0.99,-0.01,0.01,1,-0.00003,-0.0001,0,0.029,0
2025,8,16,28:05.2,-1.212,106,0.1,0,0,-1,-0.02,0.02,1,-0.00003,-0.0001,0,0.029,0
2025,8,16,28:05.2,-1.21,108,-0.1,-0.1,0,-1,0,0.02,1,-0.00003,-0.0001,0,0.029,0
2025,8,16,28:05.2,-1.208,110,0,0,-0.1,-0.99,-0.02,0.01,1,-0.00003,-0.0001,0,0.029,0
2025,8,16,28:05.2,-1.206,112,0,-0.1,-0.2,-0.99,-0.01,0.01,1,-0.00003,-0.0001,0,0.029,0
2025,8,16,28:05.2,-1.204,114,0,0,0,-1,-0.01,0.01,1,-0.00003,-0.0001,0,0.029,0
2025,8,16,28:05.2,-1.202,116,0,0,0,-0.99,-0.02,0.02,1,-0.00003,-0.0001,0,0.029,0
2025,8,16,28:05.2,-1.2,118,0,0,0,-0.99,0,0.01,1,-0.00003,-0.0001,0,0.029,0
2025,8,16,28:05.2,-1.198,120,0,0,-0.2,-1,-0.01,0.02,1,-0.00003,-0.0001,0,0.029,0
2025,8,16,28:05.2,-1.196,122,0,0,0,-0.99,-0.02,0.02,1,-0.00003,-0.0001,0,0.029,0
2025,8,16,28:05.2,-1.194,124,0,0,0,-1,0,0.01,1,-0.00003,-0.0001,0,0.029,0
2025,8,16,28:05.2,-1.192,126,0,0,0,-1,-0.02,0.02,1,-0.00003,-0.0001,0,0.029,0
2025,8,16,28:05.2,-1.19,128,0.2,0,-0.1,-1,-0.02,0.02,1,-0.00003,-0.0001,0,0.03,0
2025,8,16,28:05.2,-1.188,130,0,0,0,-0.99,-0.01,0.02,1,-0.00003,-0.0001,0,0.029,0
2025,8,16,28:05.2,-1.186,132,0,0,-0.1,-0.99,-0.02,0.01,1,-0.00003,-0.0001,0,0.029,0
2025,8,16,28:05.2,-1.184,134,0,0,0,-0.99,-0.01,0.02,1,-0.00003,-0.0001,0,0.029,0
2025,8,16,28:05.2,-1.182,136,0,-0.1,0,-1,-0.01,0.02,1,-0.00003,-0.0001,0,0.029,0
2025,8,16,28:05.2,-1.18,138,-0.1,0,0,-1,-0.01,0.02,1,-0.00003,-0.0001,0,0.029,0
2025,8,16,28:05.2,-1.178,140,0,0,0,-0.99,-0.02,0.01,1,-0.00003,-0.0001,0,0.028,0
2025,8,16,28:05.2,-1.176,142,0.1,0,0,-1,-0.02,0.01,1,-0.00003,-0.0001,0,0.029,0
2025,8,16,28:05.2,-1.174,144,0,0,0,-1,-0.02,0.02,1,-0.00003,-0.0001,0,0.029,0
2025,8,16,28:05.2,-1.172,146,0,0,0,-1,-0.01,0.01,1,-0.00003,-0.0001,0,0.029,0
2025,8,16,28:05.2,-1.17,148,0,0,0,-0.99,-0.01,0.03,1,-0.00003,-0.0001,0,0.029,0
2025,8,16,28:05.2,-1.168,150,-0.1,0,0,-0.99,0,0.02,1,-0.00003,-0.0001,0,0.029,0
2025,8,16,28:05.2,-1.166,152,0,0,0,-1,-0.01,0.02,1,-0.00003,-0.0001,0,0.029,0
2025,8,16,28:05.2,-1.164,154,0,0,0,-1,-0.02,0.02,1,-0.00003,-0.0001,0,0.029,0
2025,8,16,28:05.2,-1.162,156,0,0,0,-1,-0.02,0.01,1,-0.00003,-0.0001,0,0.029,0
2025,8,16,28:05.3,-1.16,158,0,0,0,-0.99,-0.01,0.02,1,-0.00003,-0.0001,0,0.029,0
2025,8,16,28:05.3,-1.158,160,0,0,-0.1,-1,-0.02,0.02,1,-0.00003,-0.0001,0,0.029,0
2025,8,16,28:05.3,-1.156,162,0,0,-0.1,-1,-0.01,0.02,1,-0.00003,-0.0001,-0.00003,0.029,0
2025,8,16,28:05.3,-1.154,164,-0.1,0,0,-0.99,-0.02,0.02,1,-0.00003,-0.0001,-0.00003,0.029,0
2025,8,16,28:05.3,-1.152,166,0,0.1,0,-0.99,-0.01,0.02,1,-0.00003,-0.0001,-0.00003,0.029,0
2025,8,16,28:05.3,-1.15,168,0,0,-0.1,-0.99,-0.01,0.02,1,-0.00003,-0.0001,-0.00003,0.029,0
2025,8,16,28:05.3,-1.148,170,0,0,0,-1,0,0.02,1,-0.00003,-0.0001,-0.00003,0.029,0
2025,8,16,28:05.3,-1.146,172,0,0,0,-0.99,-0.01,0.01,1,-0.00003,-0.0001,-0.00003,0.029,0
2025,8,16,28:05.3,-1.144,174,0,0,0.1,-1,-0.02,0.03,1,-0.00003,-0.0001,-0.00003,0.029,0
2025,8,16,28:05.3,-1.142,176,0,0,0,-1,-0.01,0.02,1,-0.00003,-0.0001,-0.00003,0.029,0
2025,8,16,28:05.3,-1.14,178,0,0,0,-1,-0.01,0.01,1,-0.00003,-0.0001,-0.00003,0.029,0
2025,8,16,28:05.3,-1.138,180,0.1,0,0.1,-1,-0.02,0.01,1,-0.00003,-0.0001,-0.00003,0.029,0
2025,8,16,28:05.3,-1.136,182,0,0,0,-0.99,0,0.02,1,-0.00003,-0.0001,-0.00003,0.029,0
2025,8,16,28:05.3,-1.134,184,0,0,0,-0.99,-0.02,0.02,1,-0.00003,-0.0001,-0.00003,0.029,0
2025,8,16,28:05.3,-1.132,186,0,0,0,-0.99,-0.01,0.02,1,-0.00003,-0.0001,-0.00003,0.029,0
2025,8,16,28:05.3,-1.13,188,0,0,0,-0.98,0,0.02,1,-0.00003,-0.0001,-0.00003,0.029,0
2025,8,16,28:05.3,-1.128,190,0,0,-0.1,-0.99,-0.01,0.02,1,-0.00003,-0.0001,-0.00003,0.029,0
2025,8,16,28:05.3,-1.126,192,0,0.1,-0.1,-1,-0.02,0.02,1,-0.00003,-0.0001,-0.00003,0.029,0
2025,8,16,28:05.3,-1.124,194,0,0,0,-0.99,-0.01,0.02,1,-0.00003,-0.0001,-0.00003,0.029,0
2025,8,16,28:05.3,-1.122,196,0.1,0,0,-0.99,-0.02,0.01,1,-0.00003,-0.0001,-0.00003,0.029,0
2025,8,16,28:05.3,-1.12,198,0,0,-0.1,-0.99,-0.01,0.01,1,-0.00003,-0.0001,-0.00003,0.029,0
2025,8,16,28:05.3,-1.118,200,0,0,0,-0.99,-0.01,0.01,1,-0.00003,-0.0001,-0.00003,0.029,0
2025,8,16,28:05.3,-1.116,202,0.2,0,0,-0.99,-0.02,0.01,1,-0.00003,-0.0001,-0.00003,0.029,0
2025,8,16,28:05.3,-1.114,204,0.1,0,0,-1,0,0.02,1,-0.00003,-0.0001,-0.00003,0.029,0
2025,8,16,28:05.3,-1.112,206,0,0,0,-1,-0.01,0.01,1,-0.00003,-0.0001,-0.00003,0.029,0
2025,8,16,28:05.3,-1.11,208,0,0,-0.1,-0.99,-0.02,0.01,1,0,-0.0001,-0.00003,0.029,0
2025,8,16,28:05.3,-1.108,210,0,0,0,-0.99,-0.02,0.01,1,0,-0.0001,-0.00003,0.029,0
2025,8,16,28:05.3,-1.106,212,0.1,0,0,-0.99,-0.02,0.01,1,0,-0.0001,-0.00003,0.029,0
2025,8,16,28:05.3,-1.104,214,0,0,0,-0.99,-0.01,0.01,1,0,-0.0001,-0.00003,0.029,0
2025,8,16,28:05.3,-1.102,216,0,0,0,-0.99,-0.02,0.02,1,0,-0.0001,-0.00003,0.029,0
2025,8,16,28:05.3,-1.1,218,0,0,0,-0.99,-0.03,0.02,1,0,-0.0001,-0.00003,0.029,0
2025,8,16,28:05.3,-1.098,220,0,0,0,-0.99,-0.01,0.02,1,0,-0.0001,-0.00003,0.029,0
2025,8,16,28:05.3,-1.096,222,0,0,0,-0.99,-0.02,0.01,1,0,-0.0001,-0.00003,0.029,0
2025,8,16,28:05.3,-1.094,224,0,0,0,-1,-0.01,0.02,1,0,-0.0001,-0.00003,0.029,0
2025,8,16,28:05.3,-1.092,226,0.2,0.2,0,-0.99,-0.01,0.01,1,0,-0.00007,-0.00003,0.029,0
2025,8,16,28:05.3,-1.09,228,0.2,0,0.1,-0.99,-0.02,0.02,1,0,-0.00007,-0.00003,0.029,0
2025,8,16,28:05.3,-1.088,230,0,0,0,-1,-0.01,0.01,1,0,-0.00007,-0.00003,0.029,0
2025,8,16,28:05.3,-1.086,232,0.1,0,0,-0.99,-0.01,0.02,1,0,-0.00007,-0.00003,0.029,0
2025,8,16,28:05.3,-1.084,234,0,0,0,-1,-0.01,0.02,1,0,-0.00007,-0.00003,0.029,0
2025,8,16,28:05.3,-1.082,236,0.2,0,0,-0.99,-0.01,0,1,0,-0.00007,-0.00003,0.029,0
2025,8,16,28:05.3,-1.08,238,0,-0.1,0,-0.99,-0.02,0.01,1,0,-0.00007,-0.00003,0.029,0
2025,8,16,28:05.3,-1.078,240,0,0,0,-0.99,-0.01,0.02,1,0,-0.00007,-0.00003,0.029,0
2025,8,16,28:05.3,-1.076,242,-0.1,0,0,-0.99,0,0.02,1,0,-0.00007,-0.00003,0.029,0
2025,8,16,28:05.3,-1.074,244,0,0.1,0,-0.99,-0.02,0.02,1,0,-0.00007,-0.00003,0.029,0
2025,8,16,28:05.3,-1.072,246,0,-0.1,0,-1,-0.01,0.01,1,0,-0.00007,-0.00003,0.029,0
2025,8,16,28:05.3,-1.07,248,0,0,0,-1,-0.02,0.02,1,0,-0.00007,-0.00003,0.029,0
2025,8,16,28:05.3,-1.068,0,0,0,0,-0.99,-0.01,0.02,1,0,-0.00007,-0.00003,0.029,0
2025,8,16,28:05.3,-1.066,2,-0.1,0,0,-0.99,-0.02,0.01,1,0,-0.00007,-0.00003,0.029,0
2025,8,16,28:05.3,-1.064,4,0,0,0,-1,-0.01,0.01,1,0,-0.00007,-0.00003,0.029,0
2025,8,16,28:05.3,-1.062,6,0,0,0,-0.99,-0.01,0.01,1,0,-0.00007,-0.00003,0.029,0
2025,8,16,28:05.4,-1.06,8,0,0,0,-1,-0.01,0.01,1,0,-0.00007,-0.00003,0.029,0
2025,8,16,28:05.4,-1.058,10,-0.1,0,0.1,-1,-0.02,0.01,1,0,-0.00007,-0.00003,0.029,0
2025,8,16,28:05.4,-1.056,12,0,0,0.1,-0.99,-0.02,0.02,1,0,-0.00007,-0.00003,0.029,0
2025,8,16,28:05.4,-1.054,14,-0.1,-0.1,0,-1,-0.01,0.02,1,0,-0.00007,-0.00003,0.029,0
2025,8,16,28:05.4,-1.052,16,0,0,0,-1,-0.02,0.02,1,0,-0.00007,-0.00003,0.029,0
2025,8,16,28:05.4,-1.05,18,-0.1,0,0,-0.99,-0.01,0.02,1,0,-0.00007,-0.00003,0.029,0
2025,8,16,28:05.4,-1.048,20,0,0,0,-0.99,-0.02,0.01,1,0,-0.00007,-0.00003,0.029,0
2025,8,16,28:05.4,-1.046,22,0,0,0,-0.99,0,0.02,1,0,-0.00007,-0.00003,0.029,0
2025,8,16,28:05.4,-1.044,24,0,0,0,-0.99,0,0.02,1,0,-0.00007,-0.00003,0.029,0
2025,8,16,28:05.4,-1.042,26,0,0.1,0,-0.99,-0.01,0.01,1,0,-0.00007,-0.00003,0.029,0
2025,8,16,28:05.4,-1.04,28,0,0,0.1,-1,0,0.01,1,0,-0.00007,-0.00003,0.029,0
2025,8,16,28:05.4,-1.038,30,-0.2,0,0,-1,0,0.01,1,0,-0.00007,-0.00003,0.029,0
2025,8,16,28:05.4,-1.036,32,-0.1,0,0,-1,-0.01,0.02,1,0,-0.00007,-0.00003,0.029,0
2025,8,16,28:05.4,-1.034,34,-0.1,0,0,-0.99,-0.01,0.01,1,0,-0.00007,-0.00003,0.029,0
2025,8,16,28:05.4,-1.032,36,-0.1,0,0,-1,-0.01,0.01,1,0,-0.00007,-0.00003,0.029,0
2025,8,16,28:05.4,-1.03,38,0,0,0,-0.99,-0.01,0,1,0,-0.00007,-0.00003,0.029,0
2025,8,16,28:05.4,-1.028,40,0,0,0,-0.98,-0.01,0.01,1,0,-0.00007,-0.00003,0.03,0
2025,8,16,28:05.4,-1.026,42,-0.1,0,0,-0.99,-0.01,0.01,1,0,-0.00007,-0.00003,0.029,0
2025,8,16,28:05.4,-1.024,44,0,0,0,-1,-0.01,0.01,1,0,-0.00007,-0.00003,0.029,0
2025,8,16,28:05.4,-1.022,46,-0.1,0,0,-1,0,0.02,1,-0.00003,-0.00007,-0.00003,0.029,0
2025,8,16,28:05.4,-1.02,48,0,0,0,-0.99,-0.01,0.03,1,-0.00003,-0.00007,-0.00003,0.029,0
2025,8,16,28:05.4,-1.018,50,0,-0.1,0,-1,-0.01,0.01,1,-0.00003,-0.00007,-0.00003,0.029,0
2025,8,16,28:05.4,-1.016,52,-0.1,0,0,-0.99,0,0.01,1,-0.00003,-0.00007,-0.00003,0.029,0
2025,8,16,28:05.4,-1.014,54,0,0,0,-1,-0.01,0.01,1,0,0,0,0.029,0
2025,8,16,28:05.4,-1.012,56,-0.1,0,0,-1,-0.01,0.02,1,0,0,0,0.029,0
2025,8,16,28:05.4,-1.01,58,0,-0.1,0.2,-0.99,-0.01,0,1,0,0,0,0.029,0
2025,8,16,28:05.4,-1.008,60,0,0,0,-0.99,0,0.02,1,0,0,0,0.029,0
2025,8,16,28:05.4,-1.006,62,0,0,0.2,-0.99,-0.02,0.01,1,0,0,0,0.029,0
2025,8,16,28:05.4,-1.004,64,0,0,0,-0.99,-0.01,0.01,1,0,0,0,0.029,0
2025,8,16,28:05.4,-1.002,66,-0.1,0,-0.2,-0.99,0,0.01,1,0,0,0,0.029,0
2025,8,16,28:05.4,-1,68,0,0,0.1,-0.99,0,0.02,1,0,0,0,0.029,0
2025,8,16,28:05.4,-0.998,70,0,0,-0.1,-0.99,-0.01,0.02,1,0,0,0,0.029,0
2025,8,16,28:05.4,-0.996,72,-0.1,0,0,-0.99,0,0.02,1,0,0,0,0.029,0
2025,8,16,28:05.4,-0.994,74,0,-0.1,0,-1,0,0.02,1,0,0,0,0.029,0
2025,8,16,28:05.4,-0.992,76,0,0,0,-0.99,-0.01,0.01,1,0,0,0,0.029,0
2025,8,16,28:05.4,-0.99,78,0,0,0,-1.01,-0.01,0.01,1,0,0,0,0.029,0
2025,8,16,28:05.4,-0.988,80,0.1,0,0,-1,-0.01,0.02,1,0,0,0,0.029,0
2025,8,16,28:05.4,-0.986,82,0,0,0,-0.99,0,0.01,1,0,0,0,0.029,0
2025,8,16,28:05.4,-0.984,84,0.1,0,0,-0.99,-0.01,0.01,1,0,0,0,0.029,0
2025,8,16,28:05.4,-0.982,86,0,0,0,-0.99,0,0.02,1,0,0,0,0.03,0
2025,8,16,28:05.4,-0.98,88,0.1,0,0.1,-0.99,0,0.01,1,0,0,0,0.029,0
2025,8,16,28:05.4,-0.978,90,-0.1,-0.1,0,-1,-0.01,0.02,1,0,0,0,0.029,0
2025,8,16,28:05.4,-0.976,92,0,0,0,-0.99,0,0.01,1,0,0,0,0.029,0
2025,8,16,28:05.4,-0.974,94,0,-0.1,0,-0.99,-0.01,0.01,1,0,0,0,0.029,0
2025,8,16,28:05.4,-0.972,96,0,0,0,-0.99,-0.02,0.01,1,0,0,0,0.029,0
2025,8,16,28:05.4,-0.97,98,0,0,0,-1,0,0.01,1,0,0,0,0.029,0
2025,8,16,28:05.4,-0.968,100,-0.1,0,0,-1,-0.01,0.01,1,0,0,0,0.029,0
2025,8,16,28:05.4,-0.966,102,-0.1,0,0,-1,-0.02,0.01,1,0,0,0,0.029,0
2025,8,16,28:05.4,-0.964,104,0,0,0,-0.99,-0.01,0.01,1,0,0,0,0.029,0
2025,8,16,28:05.4,-0.962,106,0,0,0,-0.99,-0.01,0.01,1,0,0,0,0.029,0
2025,8,16,28:05.4,-0.96,108,0,0,0.1,-0.99,0,0.01,1,0,0,0,0.029,0
2025,8,16,28:05.5,-0.958,110,0.1,0,0.2,-0.99,-0.01,0.01,1,0,0,0,0.029,0
2025,8,16,28:05.5,-0.956,112,0,0,0.2,-0.99,-0.01,0.01,1,0,0,0,0.029,0
2025,8,16,28:05.5,-0.954,114,0,0,0,-0.99,0,0.02,1,0,0,0,0.029,0
2025,8,16,28:05.5,-0.952,116,-0.1,-0.1,0.1,-1,-0.02,0.02,1,0,0,0,0.029,0
2025,8,16,28:05.5,-0.95,118,0,0,0,-0.99,-0.02,0.02,1,0,0,0,0.029,0
2025,8,16,28:05.5,-0.948,120,0,-0.1,0,-1,0,0.01,1,0,0,0,0.029,0
2025,8,16,28:05.5,-0.946,122,0,0,0,-1,-0.01,0.02,1,0,0,0,0.029,0
2025,8,16,28:05.5,-0.944,124,0,0,0,-1,-0.01,0.01,1,0,0,0,0.029,0
2025,8,16,28:05.5,-0.942,126,-0.1,0,0,-0.99,-0.01,0.01,1,0,0,0,0.029,0
2025,8,16,28:05.5,-0.94,128,-0.1,-0.1,0,-0.99,-0.02,0.02,1,0,0,0,0.029,0
2025,8,16,28:05.5,-0.938,130,0,0,0.1,-0.98,0,0.02,1,0,0,0,0.029,0
2025,8,16,28:05.5,-0.936,132,0,0,0,-1,-0.01,0.01,1,0,0,0.00003,0.029,0
2025,8,16,28:05.5,-0.934,134,0,0,0,-0.99,-0.02,0.02,1,0,0,0.00003,0.029,0
2025,8,16,28:05.5,-0.932,136,-0.1,0,0.1,-0.99,-0.01,0.01,1,0,0,0.00003,0.028,0
2025,8,16,28:05.5,-0.93,138,0,0,0.1,-1,-0.01,0.01,1,0,0,0.00003,0.029,0
2025,8,16,28:05.5,-0.928,140,0,0,0,-0.99,0,0.02,1,0,0,0.00003,0.029,0
2025,8,16,28:05.5,-0.926,142,0,0,0,-1,0,0.01,1,0,0,0.00003,0.029,0
2025,8,16,28:05.5,-0.924,144,0,0,0,-0.99,-0.01,0.01,1,0,0,0.00003,0.029,0
2025,8,16,28:05.5,-0.922,146,-0.1,-0.1,0,-0.99,0,0.02,1,0,0,0.00003,0.029,0
2025,8,16,28:05.5,-0.92,148,0.2,0,-0.1,-0.99,-0.01,0.01,1,0,0,0.00003,0.029,0
2025,8,16,28:05.5,-0.918,150,0,-0.1,0,-1,-0.01,0.01,1,0,0,0.00003,0.029,0
2025,8,16,28:05.5,-0.916,152,-0.1,0,0,-0.99,0,0.01,1,0,0,0.00003,0.029,0
2025,8,16,28:05.5,-0.914,154,0,0,0,-1,-0.01,0.01,1,0,0,0.00003,0.029,0
2025,8,16,28:05.5,-0.912,156,0,0,0,-0.99,-0.01,0.02,1,0,0,0.00003,0.029,0
2025,8,16,28:05.5,-0.91,158,0,-0.1,0,-0.99,0,0.02,1,0,0,0.00003,0.029,0
2025,8,16,28:05.5,-0.908,160,-0.1,0,0,-0.99,-0.01,0.03,1,0,0,0.00003,0.029,0
2025,8,16,28:05.5,-0.906,162,0,0,0,-1,0,0.02,1,0,0,0.00003,0.029,0
2025,8,16,28:05.5,-0.904,164,0,0,0,-0.99,-0.02,0.02,1,0,0,0.00003,0.029,0
2025,8,16,28:05.5,-0.902,166,0.1,0,0,-0.99,-0.02,0.02,1,0,0,0.00003,0.029,0
2025,8,16,28:05.5,-0.9,168,0,0,0,-0.99,0,0.02,1,0,0,0.00003,0.029,0
2025,8,16,28:05.5,-0.898,170,0,0,0,-0.99,-0.02,0.02,1,0,0,0.00003,0.029,0
2025,8,16,28:05.5,-0.896,172,-0.1,0,0,-0.99,-0.02,0.02,1,0,0,0.00003,0.029,0
2025,8,16,28:05.5,-0.894,174,0,-0.1,0,-0.99,-0.02,0.01,1,0,0,0.00003,0.029,0
2025,8,16,28:05.5,-0.892,176,0,0,0,-0.99,-0.01,0.02,1,0,0,0.00003,0.029,0
2025,8,16,28:05.5,-0.89,178,0.1,0.1,0,-1,0,0.01,1,0,0,0.00003,0.029,0
2025,8,16,28:05.5,-0.888,180,-0.1,-0.1,0,-0.99,-0.01,0.02,1,0,0,0.00003,0.029,0
2025,8,16,28:05.5,-0.886,182,0,-0.1,0,-0.99,-0.02,0.02,1,0,0,0.00003,0.029,0
2025,8,16,28:05.5,-0.884,184,0,0,0,-1,0,0.01,1,0,0,0.00003,0.029,0
2025,8,16,28:05.5,-0.882,186,0,0,0,-1,-0.02,0.02,1,0,0,0.00003,0.029,0
2025,8,16,28:05.5,-0.88,188,-0.1,0,0,-0.99,-0.01,0.01,1,0,0,0.00003,0.029,0
2025,8,16,28:05.5,-0.878,190,0,0,0,-0.99,-0.01,0.01,1,0,0,0.00003,0.029,0
2025,8,16,28:05.5,-0.876,192,-0.1,0,0,-0.99,-0.01,0.01,1,0,0,0.00003,0.029,0
2025,8,16,28:05.5,-0.874,194,0,0,-0.1,-1,-0.01,0.01,1,0,0,0.00003,0.029,0
2025,8,16,28:05.5,-0.872,196,0.2,0,0,-0.99,-0.02,0.01,1,0,0,0.00003,0.029,0
2025,8,16,28:05.5,-0.87,198,0,-0.1,0,-1,-0.01,0.02,1,0,0,0.00003,0.029,0
2025,8,16,28:05.5,-0.868,200,0,-0.1,0,-1,-0.01,0.01,1,0,0,0.00003,0.029,0
2025,8,16,28:05.5,-0.866,202,0,0,-0.1,-1,-0.01,0.02,1,0,0,0.00003,0.029,0
2025,8,16,28:05.5,-0.864,204,0,0,0,-0.99,0,0.01,1,0,0,0,0.029,0
2025,8,16,28:05.5,-0.862,206,0.2,0,-0.1,-1,-0.01,0.01,1,0,0,0,0.029,0
2025,8,16,28:05.6,-0.86,208,0.1,0,-0.1,-1,-0.02,0.02,1,0,0,0,0.029,0
2025,8,16,28:05.6,-0.858,210,0,0,-0.1,-1,0,0.01,1,0,0,0,0.029,0
2025,8,16,28:05.6,-0.856,212,0.2,0,0,-0.99,-0.02,0.02,1,0,0,0,0.029,0
2025,8,16,28:05.6,-0.854,214,0.1,0,0,-1,-0.01,0.01,1,0,0,0,0.029,0
2025,8,16,28:05.6,-0.852,216,0,0,0,-0.99,-0.01,0.02,1,0,0,0,0.029,0
2025,8,16,28:05.6,-0.85,218,0,0,0,-0.99,-0.01,0.02,1,0,0,0,0.029,0
2025,8,16,28:05.6,-0.848,220,0,0,0,-0.99,-0.01,0.02,1,0,0,0,0.029,0
2025,8,16,28:05.6,-0.846,222,-0.1,0,0,-1,-0.01,0.01,1,0,0,0,0.029,0
2025,8,16,28:05.6,-0.844,224,0,0,0,-1,-0.02,0.02,1,0,0,0,0.029,0
2025,8,16,28:05.6,-0.842,226,0,0,0,-0.99,-0.01,0.02,1,0,0,0,0.029,0
2025,8,16,28:05.6,-0.84,228,0,0,0,-0.99,0,0.02,1,0,0,0,0.029,0
2025,8,16,28:05.6,-0.838,230,0,0,0,-1,-0.02,0.02,1,0,0,0,0.029,0
2025,8,16,28:05.6,-0.836,232,0,0,0,-1,-0.01,0.02,1,0,0,0,0.029,0
2025,8,16,28:05.6,-0.834,234,0,-0.1,0,-1.01,-0.01,0.01,1,0,-0.00003,0,0.029,0
2025,8,16,28:05.6,-0.832,236,0,0,0,-1,-0.01,0.02,1,0,0,0,0.029,0
2025,8,16,28:05.6,-0.83,238,-0.1,0,-0.1,-1,-0.01,0.02,1,0,0,0,0.029,0
2025,8,16,28:05.6,-0.828,240,0,0.1,0,-1,-0.02,0.01,1,0,0,0,0.029,0
2025,8,16,28:05.6,-0.826,242,0,0,0,-1,-0.01,0.02,1,0,0,0,0.029,0
2025,8,16,28:05.6,-0.824,244,0,0,0,-0.99,-0.02,0.01,1,0,0,0,0.029,0
2025,8,16,28:05.6,-0.822,246,0,0,0,-0.99,-0.02,0.01,1,0,0,0,0.029,0
2025,8,16,28:05.6,-0.82,248,-0.1,0,0,-0.99,-0.01,0.02,1,0,0,0,0.029,0
2025,8,16,28:05.6,-0.818,0,0,0,0,-0.99,-0.01,0.02,1,0,0,0,0.029,0
2025,8,16,28:05.6,-0.816,2,0,0,0,-0.99,0,0.02,1,0,0,0,0.029,0
2025,8,16,28:05.6,-0.814,4,0,0,0,-0.99,-0.01,0.03,1,0,0,0,0.029,0
2025,8,16,28:05.6,-0.812,6,0,0,0,-1,-0.02,0.02,1,0,0,0,0.03,0
2025,8,16,28:05.6,-0.81,8,0,0,-0.1,-1,-0.01,0.01,1,0,0,0,0.029,0
2025,8,16,28:05.6,-0.808,10,0,0,0,-1,-0.02,0.02,1,0,0,0,0.029,0
2025,8,16,28:05.6,-0.806,12,0,0,-0.1,-1,-0.02,0.02,1,0,0,0,0.03,0
2025,8,16,28:05.6,-0.804,14,0,0,0,-0.99,-0.01,0.02,1,0,0,0,0.029,0
2025,8,16,28:05.6,-0.802,16,0,0,0.2,-0.99,-0.02,0.02,1,0,0,0,0.029,0
2025,8,16,28:05.6,-0.8,18,0,0,0,-1,-0.01,0.02,1,0,0,0,0.029,0
2025,8,16,28:05.6,-0.798,20,0,0,0,-0.99,0,0.02,1,0,0,0,0.029,0
2025,8,16,28:05.6,-0.796,22,-0.1,0,0,-1,-0.01,0.02,1,0,0,0,0.029,0
2025,8,16,28:05.6,-0.794,24,0,0,0,-0.99,0,0.02,1,0,0,0,0.029,0
2025,8,16,28:05.6,-0.792,26,0,0,-0.1,-0.99,-0.02,0.02,1,0,0,0,0.029,0
2025,8,16,28:05.6,-0.79,28,0,0,0.1,-0.99,-0.02,0.01,1,0,0,0,0.029,0
2025,8,16,28:05.6,-0.788,30,0,0,0,-0.99,-0.01,0.01,1,0,0,0,0.029,0
2025,8,16,28:05.6,-0.786,32,-0.1,0,0,-1,-0.02,0.02,1,0,0,0,0.029,0
2025,8,16,28:05.6,-0.784,34,-0.1,0,0,-0.99,-0.02,0.02,1,0,0,0,0.029,0
2025,8,16,28:05.6,-0.782,36,-0.1,0,0,-0.99,0,0.01,1,0,0,0,0.029,0
2025,8,16,28:05.6,-0.78,38,-0.1,0,0,-0.98,-0.02,0.01,1,0,0,0,0.029,0
2025,8,16,28:05.6,-0.778,40,0,0,-0.1,-0.99,0,0.02,1,0,0,0,0.029,0
2025,8,16,28:05.6,-0.776,42,0,0,-0.1,-1,0,0.02,1,0,0,0,0.029,0
2025,8,16,28:05.6,-0.774,44,-0.1,-0.1,0,-1,-0.01,0.01,1,0,0,0,0.029,0
2025,8,16,28:05.6,-0.772,46,0,0,-0.1,-1.01,-0.01,0.01,1,0,0,0,0.029,0
2025,8,16,28:05.6,-0.77,48,0,0,0,-1,-0.01,0.01,1,0,0,0,0.029,0
2025,8,16,28:05.6,-0.768,50,0.1,0,-0.2,-0.99,-0.01,0.02,1,0,0,0,0.029,0
2025,8,16,28:05.6,-0.766,52,-0.1,0,-0.2,-0.99,0,0.01,1,0,0,0,0.03,0
2025,8,16,28:05.6,-0.764,54,0,0,-0.1,-1,-0.02,0.01,1,0,0,0,0.029,0
2025,8,16,28:05.6,-0.762,56,0,0,0,-0.99,0,0.01,1,0,0,0,0.029,0
2025,8,16,28:05.7,-0.76,58,0,0,-0.1,-0.99,0,0.02,1,0,0,0,0.029,0
2025,8,16,28:05.7,-0.758,60,0,0,0,-1,-0.01,0.01,1,0,0,0,0.029,0
2025,8,16,28:05.7,-0.756,62,0,-0.1,0,-0.99,-0.01,0.01,1,0,0,0,0.029,0
2025,8,16,28:05.7,-0.754,64,0,-0.1,0,-0.99,-0.01,0.02,1,0,0,0,0.029,0
2025,8,16,28:05.7,-0.752,66,0,0,0,-0.99,-0.01,0.01,1,0,0,0,0.029,0
2025,8,16,28:05.7,-0.75,68,0,0,0,-0.99,-0.01,0.01,1,0,0,0,0.029,0
2025,8,16,28:05.7,-0.748,70,0,0,0,-0.99,-0.01,0.01,1,0,0,0,0.029,0
2025,8,16,28:05.7,-0.746,72,0,0,0,-0.99,-0.01,0.02,1,0,0,0,0.029,0
2025,8,16,28:05.7,-0.744,74,0,0,0,-0.99,0,0.01,1,0,0,0,0.029,0
2025,8,16,28:05.7,-0.742,76,0.1,0,0,-1,-0.02,0.01,1,0,0,0,0.029,0
2025,8,16,28:05.7,-0.74,78,0,0,0,-0.99,-0.01,0.02,1,0,0,0,0.029,0
2025,8,16,28:05.7,-0.738,80,0,0,-0.1,-0.99,-0.01,0.01,1,0,0,0,0.029,0
2025,8,16,28:05.7,-0.736,82,0.1,0,0,-0.99,-0.01,0.01,1,0,0,0,0.029,0
2025,8,16,28:05.7,-0.734,84,0,0,-0.2,-0.99,-0.01,0.01,1,0,0,0,0.029,0
2025,8,16,28:05.7,-0.732,86,0.2,0,0,-0.99,-0.01,0.02,1,0,0,0,0.029,0
2025,8,16,28:05.7,-0.73,88,0,-0.1,0,-0.99,-0.01,0.02,1,0,0,0,0.029,0
2025,8,16,28:05.7,-0.728,90,0.1,0,0,-0.99,-0.01,0.01,1,0,0,0,0.029,0
2025,8,16,28:05.7,-0.726,92,0,0,0,-1,-0.03,0.01,1,0,0,0,0.029,0
2025,8,16,28:05.7,-0.724,94,0,0,-0.1,-0.99,-0.01,0.01,1,0,0,0,0.029,0
2025,8,16,28:05.7,-0.722,96,0,0,0.1,-0.99,-0.01,0.01,1,0,0,0,0.029,0
2025,8,16,28:05.7,-0.72,98,-0.1,0,0,-1,-0.02,0.02,1,0,0,0,0.029,0
2025,8,16,28:05.7,-0.718,100,0,0,0,-0.99,0,0.02,1,0,0,0,0.029,0
2025,8,16,28:05.7,-0.716,102,0,0,0,-0.99,-0.02,0.01,1,0,0,0,0.029,0
2025,8,16,28:05.7,-0.714,104,0,0,0,-0.99,-0.01,0.02,1,0,0,0,0.029,0
2025,8,16,28:05.7,-0.712,106,0,0,0,-0.99,-0.01,0.01,1,0,0,0,0.029,0
2025,8,16,28:05.7,-0.71,108,0,0,0,-0.99,-0.02,0.01,1,0,0,0,0.029,0
2025,8,16,28:05.7,-0.708,110,0.1,0,-0.1,-0.98,0,0.01,1,0,0,0,0.029,0
2025,8,16,28:05.7,-0.706,112,-0.1,0,0,-0.98,-0.01,0.01,1,0,0,0,0.029,0
2025,8,16,28:05.7,-0.704,114,0,0,0,-0.99,-0.01,0.01,1,0,0,0,0.029,0
2025,8,16,28:05.7,-0.702,116,0,-0.1,0,-0.99,-0.01,0.01,1,0,0,0,0.029,0
2025,8,16,28:05.7,-0.7,118,0,0,-0.1,-1,-0.01,0.01,1,0,0,0,0.029,0
2025,8,16,28:05.7,-0.698,120,0,0,0.1,-0.99,-0.02,0.01,1,0,0,0,0.029,0
2025,8,16,28:05.7,-0.696,122,-0.1,0,0,-0.99,-0.01,0.02,1,0,0,0,0.029,0
2025,8,16,28:05.7,-0.694,124,-0.1,0,0.1,-1,-0.02,0.02,1,0,0,0,0.029,0
2025,8,16,28:05.7,-0.692,126,0,0,0,-0.99,-0.01,0.02,1,0,0,0,0.029,0
2025,8,16,28:05.7,-0.69,128,-0.1,0,0.1,-0.99,-0.01,0.01,1,0,0,0,0.029,0
2025,8,16,28:05.7,-0.688,130,0.1,0,0,-0.99,-0.01,0.02,1,0,0,0,0.029,0
2025,8,16,28:05.7,-0.686,132,0,0,0.1,-0.99,-0.01,0.01,1,0,0,0,0.029,0
2025,8,16,28:05.7,-0.684,134,-0.1,0,0.1,-1,-0.01,0.01,1,0,0,0,0.029,0
2025,8,16,28:05.7,-0.682,136,0,0,0,-0.99,-0.01,0.01,1,0,0,0,0.029,0
2025,8,16,28:05.7,-0.68,138,-0.1,0,0,-0.99,0,0.02,1,0,0,0,0.029,0
2025,8,16,28:05.7,-0.678,140,-0.3,0,0,-0.99,-0.02,0.02,1,0,0,0,0.029,0
2025,8,16,28:05.7,-0.676,142,0,0,0,-0.99,0,0.02,1,0,0,0,0.029,0
2025,8,16,28:05.7,-0.674,144,0,0,0.2,-0.99,-0.02,0.02,1,0,0,0,0.029,0
2025,8,16,28:05.7,-0.672,146,0,0,0.2,-1,-0.01,0.01,1,0,0,0,0.029,0
2025,8,16,28:05.7,-0.67,148,0,0,0,-0.98,-0.01,0.02,1,0,0,0,0.029,0
2025,8,16,28:05.7,-0.668,150,-0.1,0,0,-0.99,-0.02,0.02,1,0,0,0,0.029,0
2025,8,16,28:05.7,-0.666,152,-0.1,0,0,-0.99,0,0.01,1,0,0,0,0.029,0
2025,8,16,28:05.7,-0.664,154,-0.1,0,-0.1,-0.99,-0.01,0.02,1,0,0,0,0.029,0
2025,8,16,28:05.7,-0.662,156,-0.2,0,0.1,-0.99,-0.01,0.01,1,0,0,0,0.029,0
2025,8,16,28:05.8,-0.66,158,-0.1,0,0,-0.99,0,0.01,1,0,0,0,0.029,0
2025,8,16,28:05.8,-0.658,160,-0.1,0,0,-1,-0.01,0.01,1,0,0,0,0.029,0
2025,8,16,28:05.8,-0.656,162,-0.1,0,0,-0.99,-0.01,0.02,1,0,0,0,0.029,0
2025,8,16,28:05.8,-0.654,164,0,0,-0.1,-1,0,0.02,1,0,0,0,0.029,0
2025,8,16,28:05.8,-0.652,166,-0.1,0,0,-1,-0.01,0.01,1,0,0,0,0.029,0
2025,8,16,28:05.8,-0.65,168,0,0,0,-1,0,0.01,1,0,0,0,0.029,0
2025,8,16,28:05.8,-0.648,170,0,0,0,-0.99,-0.01,0.01,1,0,0,0,0.029,0
2025,8,16,28:05.8,-0.646,172,0,0,0,-0.99,-0.01,0.02,1,0,0,0,0.029,0
2025,8,16,28:05.8,-0.644,174,-0.1,0,0,-1,-0.01,0.01,1,0,0,0,0.029,0
2025,8,16,28:05.8,-0.642,176,0,0,0.1,-0.99,-0.01,0.01,1,0,0,0,0.029,0
2025,8,16,28:05.8,-0.64,178,0,0,0,-0.98,-0.01,0.01,1,0,0,0,0.029,0
2025,8,16,28:05.8,-0.638,180,-0.1,0,0,-0.99,0,0.01,1,0,0,0,0.029,0
2025,8,16,28:05.8,-0.636,182,0,0,0,-1,-0.01,0.01,1,0,0,0,0.029,0
2025,8,16,28:05.8,-0.634,184,0,0,0,-1,0,0.02,1,0,0,0,0.029,0
2025,8,16,28:05.8,-0.632,186,0,0,0,-0.99,0,0.02,1,0,0,0,0.029,0
2025,8,16,28:05.8,-0.63,188,0,0,0,-1,-0.02,0.02,1,0,0,0,0.029,0
2025,8,16,28:05.8,-0.628,190,0,0,0,-0.99,0,0.02,1,0,0,0,0.029,0
2025,8,16,28:05.8,-0.626,192,-0.1,0,0,-1,-0.01,0.01,1,0,0,0,0.029,0
2025,8,16,28:05.8,-0.624,194,0,0,0.1,-1,-0.02,0.01,1,0,0,0,0.029,0
2025,8,16,28:05.8,-0.622,196,0,-0.1,0,-0.99,0,0.01,1,0,0,0,0.029,0
2025,8,16,28:05.8,-0.62,198,0,0,0,-1,0,0.02,1,-0.00003,0,0,0.03,0
2025,8,16,28:05.8,-0.618,200,0.1,0,0,-1,-0.01,0.01,1,0,0,0,0.029,0
2025,8,16,28:05.8,-0.616,202,0,0,0,-1,0,0.02,1,0,0,0,0.029,0
2025,8,16,28:05.8,-0.614,204,0.2,0,0.1,-1,0,0.02,1,0,0,0,0.029,0
2025,8,16,28:05.8,-0.612,206,-0.1,0,0,-0.99,0,0.01,1,0,0,0,0.029,0
2025,8,16,28:05.8,-0.61,208,0,0,0,-1,0,0.02,1,0,0,0,0.029,0
2025,8,16,28:05.8,-0.608,210,-0.1,-0.1,0.2,-1,0,0.02,1,0,0,0,0.029,0
2025,8,16,28:05.8,-0.606,212,0,0,0,-0.99,0,0.01,1,0,0,0,0.029,0
2025,8,16,28:05.8,-0.604,214,-0.1,0,0,-1,-0.01,0.01,1,0,0,0,0.029,0
2025,8,16,28:05.8,-0.602,216,0,0,-0.1,-0.99,-0.02,0.02,1,0,0,0,0.029,0
2025,8,16,28:05.8,-0.6,218,0,0,0,-1,-0.01,0.02,1,0,0,0,0.029,0
2025,8,16,28:05.8,-0.598,220,-0.1,0,0,-1,-0.01,0.01,1,0,0,0,0.029,0
2025,8,16,28:05.8,-0.596,222,-0.1,-0.1,0,-1,-0.02,0.01,1,-0.00003,0,0,0.029,0
2025,8,16,28:05.8,-0.594,224,0,0,0.1,-0.99,-0.01,0.02,1,-0.00003,0,0,0.029,0
2025,8,16,28:05.8,-0.592,226,0,0,0.1,-1,-0.01,0.01,1,-0.00003,0,0.00003,0.029,0
2025,8,16,28:05.8,-0.59,228,0,0,0,-0.99,-0.01,0.01,1,-0.00003,0,0.00003,0.029,0
2025,8,16,28:05.8,-0.588,230,0,-0.1,0,-1,-0.01,0.02,1,-0.00003,0,0.00003,0.029,0
2025,8,16,28:05.8,-0.586,232,0,0,0,-1.01,-0.02,0.02,1,0,0,0.00003,0.029,0
2025,8,16,28:05.8,-0.584,234,0,0,0.1,-0.99,-0.01,0.01,1,0,0,0.00003,0.029,0
2025,8,16,28:05.8,-0.582,236,0,0,0.1,-1,-0.01,0.02,1,0,0,0.00003,0.029,0
2025,8,16,28:05.8,-0.58,238,0,0,0,-1,-0.01,0.02,1,0,0,0.00003,0.029,0
2025,8,16,28:05.8,-0.578,240,0,-0.1,0,-0.99,-0.01,0.02,1,0,0,0.00003,0.029,0
2025,8,16,28:05.8,-0.576,242,0,0,0.1,-1,-0.01,0.02,1,0,0,0.00003,0.029,0
2025,8,16,28:05.8,-0.574,244,0,0,0,-0.99,-0.01,0.01,1,0,0,0.00003,0.029,0
2025,8,16,28:05.8,-0.572,246,0,0,0,-1,-0.01,0.01,1,0,0,0.00003,0.029,0
2025,8,16,28:05.8,-0.57,248,0,0,0,-0.99,-0.01,0.01,1,0,0,0.00003,0.029,0
2025,8,16,28:05.8,-0.568,0,0,0,0.2,-0.99,-0.01,0.01,1,0,0,0.00003,0.029,0
2025,8,16,28:05.8,-0.566,2,0,0,0.2,-1,-0.01,0.02,1,0,0,0.00003,0.029,0
2025,8,16,28:05.8,-0.564,4,0,0,0.1,-1,-0.01,0.01,1,0,0,0.00003,0.029,0
2025,8,16,28:05.8,-0.562,6,0,0.1,0,-1,-0.02,0.02,1,0,0,0.00003,0.03,0
2025,8,16,28:05.9,-0.56,8,-0.1,0,0,-0.99,-0.01,0.01,1,-0.00003,0,0.00003,0.029,0
2025,8,16,28:05.9,-0.558,10,-0.1,0,0,-0.99,0,0.02,1,-0.00003,0,0.00003,0.029,0
2025,8,16,28:05.9,-0.556,12,0,0,0.2,-1,-0.02,0.02,1,-0.00003,0,0.00003,0.03,0
2025,8,16,28:05.9,-0.554,14,-0.1,0,0,-1,-0.01,0.02,1,-0.00003,0,0.00003,0.029,0
2025,8,16,28:05.9,-0.552,16,0,0,0,-1,-0.01,0.01,1,-0.00003,0,0.00003,0.029,0
2025,8,16,28:05.9,-0.55,18,0,0.1,0.2,-1,-0.02,0.02,1,-0.00003,0,0.00007,0.029,0
2025,8,16,28:05.9,-0.548,20,-0.1,0,-0.1,-1,0,0.01,1,-0.00003,0,0.00003,0.03,0
2025,8,16,28:05.9,-0.546,22,0,0,0,-0.99,0,0.02,1,-0.00003,0,0.00003,0.029,0
2025,8,16,28:05.9,-0.544,24,-0.2,-0.1,0,-0.98,-0.01,0.02,1,-0.00003,0,0.00003,0.029,0
2025,8,16,28:05.9,-0.542,26,-0.1,0,0,-1,0,0.02,1,-0.00003,0,0.00003,0.029,0
2025,8,16,28:05.9,-0.54,28,0,0,0,-1,-0.01,0.02,1,-0.00003,0,0.00003,0.029,0
2025,8,16,28:05.9,-0.538,30,0,0,0,-0.99,-0.01,0.01,1,-0.00003,0,0.00003,0.029,0
2025,8,16,28:05.9,-0.536,32,0,0,0,-0.99,0,0.01,1,-0.00003,0,0.00003,0.029,0
2025,8,16,28:05.9,-0.534,34,-0.1,0,0.2,-1,-0.01,0.02,1,-0.00003,0,0.00007,0.029,0
2025,8,16,28:05.9,-0.532,36,0,0,0,-0.99,0,0.02,1,-0.00003,0,0.00003,0.029,0
2025,8,16,28:05.9,-0.53,38,0,0,0,-0.99,-0.01,0.01,1,-0.00003,0,0.00007,0.029,0
2025,8,16,28:05.9,-0.528,40,0,0,0,-1,-0.02,0.02,1,-0.00003,0,0.00007,0.029,0
2025,8,16,28:05.9,-0.526,42,0,-0.1,-0.2,-0.99,0,0.02,1,-0.00003,0,0.00003,0.029,0
2025,8,16,28:05.9,-0.524,44,-0.1,0,0,-0.99,0,0.02,1,-0.00003,0,0.00003,0.029,0
2025,8,16,28:05.9,-0.522,46,0,0,0,-0.99,0,0.01,1,-0.00003,0,0.00003,0.029,0
2025,8,16,28:05.9,-0.52,48,0,0,0,-0.99,0,0.01,1,-0.00003,0,0.00003,0.029,0
2025,8,16,28:05.9,-0.518,50,0,0,0.1,-1,-0.01,0.02,1,-0.00003,0,0.00003,0.029,0
2025,8,16,28:05.9,-0.516,52,0,0,-0.1,-0.99,-0.01,0.02,1,-0.00003,0,0.00003,0.029,0
2025,8,16,28:05.9,-0.514,54,0.1,0,0,-0.99,0,0.02,1,-0.00003,0,0.00003,0.029,0
2025,8,16,28:05.9,-0.512,56,-0.1,0,0,-0.99,-0.01,0.02,1,0,0,0,0.029,0
2025,8,16,28:05.9,-0.51,58,0,0,0,-0.99,-0.01,0.02,1,0,0,0,0.029,0
2025,8,16,28:05.9,-0.508,60,0,0,0.1,-0.98,-0.01,0.02,1,0,0,0,0.029,0
2025,8,16,28:05.9,-0.506,62,0,0,0,-1,0,0.02,1,0,0,0,0.029,0
2025,8,16,28:05.9,-0.504,64,0,0,0,-0.99,0,0.01,1,0,0,0,0.029,0
2025,8,16,28:05.9,-0.502,66,0,0,-0.1,-1,-0.02,0.02,1,0,0,0,0.029,0
2025,8,16,28:05.9,-0.5,68,0,0,0,-0.99,0,0.02,1,0,0,0,0.029,0
2025,8,16,28:05.9,-0.498,70,0,0,-0.2,-0.99,0,0.02,1,0,0,0,0.029,0
2025,8,16,28:05.9,-0.496,72,0,-0.1,0,-1,-0.01,0.02,1,0,0,0,0.029,0
2025,8,16,28:05.9,-0.494,74,0.1,0,0,-0.99,0,0.02,1,0,0,0,0.029,0
2025,8,16,28:05.9,-0.492,76,0,0,0,-0.99,-0.01,0.02,1,0,0,0,0.029,0
2025,8,16,28:05.9,-0.49,78,0,0,0,-1,-0.01,0.02,1,0,0,0,0.029,0
2025,8,16,28:05.9,-0.488,80,0.1,0,-0.1,-0.99,-0.01,0.01,1,0,0,0,0.03,0
2025,8,16,28:05.9,-0.486,82,0,0,0,-0.99,-0.02,0.02,1,0,0,0,0.029,0
2025,8,16,28:05.9,-0.484,84,0.2,0,0,-0.99,0,0.02,1,0,0,0,0.029,0
2025,8,16,28:05.9,-0.482,86,0,0,0,-0.99,-0.01,0.01,1,0,0,0,0.029,0
2025,8,16,28:05.9,-0.48,88,0,0,0,-0.99,-0.01,0.03,1,0,0,0,0.029,0
2025,8,16,28:05.9,-0.478,90,0,0,0,-0.99,-0.01,0.02,1,0,0,0,0.029,0
2025,8,16,28:05.9,-0.476,92,0.2,0,0.1,-1,-0.02,0.01,1,0,0,0,0.029,0
2025,8,16,28:05.9,-0.474,94,0,-0.1,0,-0.99,-0.01,0.02,1,0,0,0,0.029,0
2025,8,16,28:05.9,-0.472,96,0,0,0,-0.99,0,0.01,1,0,0,0,0.029,0
2025,8,16,28:05.9,-0.47,98,0,0,0,-1,-0.01,0.02,1,0,0,0,0.029,0
2025,8,16,28:05.9,-0.468,100,0.2,0,0,-0.99,-0.01,0.01,1,0,0,0,0.029,0
2025,8,16,28:05.9,-0.466,102,-0.1,-0.1,0,-0.99,0,0.01,1,0,0,0,0.029,0
2025,8,16,28:05.9,-0.464,104,0,0,-0.2,-0.99,-0.01,0.01,1,0,0,0,0.029,0
2025,8,16,28:05.9,-0.462,106,-0.1,0,0,-1,-0.01,0.01,1,0,0,0,0.029,0
2025,8,16,28:06.0,-0.46,108,0.1,0,0,-0.99,-0.01,0.02,1,0,0,0,0.029,0
2025,8,16,28:06.0,-0.458,110,0,0,0,-0.99,-0.01,0.02,1,0,0,0,0.029,0
2025,8,16,28:06.0,-0.456,112,0,0.1,0.1,-0.74,-0.03,0.01,1,0,0,0,0.029,0
2025,8,16,28:06.0,-0.454,114,0,-0.1,-0.5,-1.36,0,-0.02,1,0,0,0,0.029,0
2025,8,16,28:06.0,-0.452,116,0.6,0,-0.2,-1.28,0.04,-0.01,1,0,0,0,0.029,0
2025,8,16,28:06.0,-0.45,118,0.6,-0.1,-0.4,-1.26,0.06,0.01,1,0.00003,0,0,0.029,0
2025,8,16,28:06.0,-0.448,120,0,0,0.4,-0.79,-0.07,0.02,1,0.00003,0,0,0.029,0
2025,8,16,28:06.0,-0.446,122,-0.2,-0.1,0,-0.86,-0.05,0.01,1,0.00003,0,0,0.03,0
2025,8,16,28:06.0,-0.444,124,-0.2,0,0,-0.95,-0.01,0,1,0.00003,0,0,0.029,0
2025,8,16,28:06.0,-0.442,126,0.5,0,0,-0.99,-0.02,0.02,1,0.00003,0,0,0.029,0
2025,8,16,28:06.0,-0.44,128,0.3,0,0.1,-0.95,-0.01,0.02,1,0.00003,0,0,0.029,0
2025,8,16,28:06.0,-0.438,130,0.2,0.1,0,-0.96,-0.01,0,1,0.00003,0,0,0.029,0
2025,8,16,28:06.0,-0.436,132,-0.1,-0.1,0,-1.01,0,0.03,1,0.00003,0,0,0.029,0
2025,8,16,28:06.0,-0.434,134,-0.4,0,0,-0.97,0.04,0.05,1,0.00003,0,0,0.029,0
2025,8,16,28:06.0,-0.432,136,0.3,-0.1,-0.1,-1,-0.06,-0.03,1,0.00003,0,0,0.029,0
2025,8,16,28:06.0,-0.43,138,0.4,-0.1,-0.2,-0.98,-0.05,-0.02,1,0.00003,0,0,0.029,0
2025,8,16,28:06.0,-0.428,140,0,0,-0.2,-0.97,-0.01,0,1,0.00003,0,0,0.029,0
2025,8,16,28:06.0,-0.426,142,-0.5,0,0,-1.01,0.01,0.02,1,0.00003,0,0,0.029,0
2025,8,16,28:06.0,-0.424,144,-0.6,0,0,-0.97,0.01,0.03,1,0.00003,0,0,0.029,0
2025,8,16,28:06.0,-0.422,146,-0.4,0.2,-0.2,-0.98,0,0.02,1,0,0,-0.00003,0.029,0
2025,8,16,28:06.0,-0.42,148,0,0,0,-1.01,0,0.03,1,0,0,-0.00003,0.03,0
2025,8,16,28:06.0,-0.418,150,-0.2,0.3,0,-1.01,0,0.01,1,0,0,-0.00003,0.03,0
2025,8,16,28:06.0,-0.416,152,0,-0.1,0,-1.03,-0.01,0.02,1,0,0,-0.00003,0.029,0
2025,8,16,28:06.0,-0.414,154,0,0,0.2,-0.96,-0.02,0.03,1,0,0,0,0.029,0
2025,8,16,28:06.0,-0.412,156,-0.1,0,0,-0.98,0,0.03,1,0,0,0,0.03,0
2025,8,16,28:06.0,-0.41,158,0.2,0,0,-1,-0.02,0,1,0,0,0,0.029,0
2025,8,16,28:06.0,-0.408,160,0.2,0,0,-0.99,0,0.02,1,0,0,0,0.029,0
2025,8,16,28:06.0,-0.406,162,0.2,0.1,0,-0.99,-0.02,0.03,1,0.00003,0,0,0.029,0
2025,8,16,28:06.0,-0.404,164,0.3,0,-0.2,-1,0,0.02,1,0.00003,0,-0.00003,0.029,0
2025,8,16,28:06.0,-0.402,166,0,-0.1,-0.1,-1,0,0.01,1,0.00003,0,-0.00003,0.029,0
2025,8,16,28:06.0,-0.4,168,0.2,0,0,-1.01,-0.02,0.01,1,0.00003,0,-0.00003,0.029,0
2025,8,16,28:06.0,-0.398,170,0,-0.1,0,-0.98,0,0.01,1,0.00003,0,-0.00003,0.029,0
2025,8,16,28:06.0,-0.396,172,0.1,0,-0.1,-0.99,-0.01,0.02,1,0.00003,0,-0.00003,0.029,0
2025,8,16,28:06.0,-0.394,174,0.2,0,0.2,-0.98,-0.01,0.02,1,0.00003,0,-0.00003,0.029,0
2025,8,16,28:06.0,-0.392,176,0,0,0,-0.99,0,0.02,1,0.00003,0,-0.00003,0.029,0
2025,8,16,28:06.0,-0.39,178,0,0,0,-0.99,-0.01,0,1,0.00003,0,-0.00003,0.029,0
2025,8,16,28:06.0,-0.388,180,0,0,0,-0.98,-0.01,0.01,1,0.00003,0,-0.00003,0.029,0
2025,8,16,28:06.0,-0.386,182,0,-0.1,0,-1.01,-0.01,0.01,1,0.00003,0,-0.00003,0.029,0
2025,8,16,28:06.0,-0.384,184,0,-0.1,0,-1,-0.02,0.01,1,0.00003,0,-0.00003,0.029,0
2025,8,16,28:06.0,-0.382,186,-0.1,-0.1,-0.1,-0.99,0,0.02,1,0.00003,0,-0.00003,0.029,0
2025,8,16,28:06.0,-0.38,188,0.1,0,0,-0.99,-0.02,0.02,1,0.00003,0,-0.00003,0.029,0
2025,8,16,28:06.0,-0.378,190,-0.1,-0.1,0,-1,-0.02,0.03,1,0.00003,0,-0.00003,0.029,0
2025,8,16,28:06.0,-0.376,192,0,0,-0.1,-0.99,-0.01,0.01,1,0.00003,0,-0.00003,0.029,0
2025,8,16,28:06.0,-0.374,194,0,0,0,-0.99,-0.01,0.02,1,0.00003,0,-0.00003,0.029,0
2025,8,16,28:06.0,-0.372,196,0,0,0,-0.98,-0.01,0.01,1,0.00003,0,-0.00003,0.029,0
2025,8,16,28:06.0,-0.37,198,0,0,0,-0.99,-0.01,0.01,1,0.00003,0,-0.00003,0.029,0
2025,8,16,28:06.0,-0.368,200,-0.1,-0.1,0,-1,-0.01,0.01,1,0.00003,0,-0.00003,0.029,0
2025,8,16,28:06.0,-0.366,202,0.2,0,0,-1,0,0.01,1,0.00003,0,-0.00003,0.029,0
2025,8,16,28:06.0,-0.364,204,0,0,-0.1,-1,0,0.01,1,0.00003,0,-0.00003,0.029,0
2025,8,16,28:06.0,-0.362,206,0.2,-0.1,0,-1,-0.03,0.02,1,0.00003,0,-0.00003,0.029,0
2025,8,16,28:06.1,-0.36,208,0.2,0.2,0,-0.99,-0.01,0.02,1,0.00003,0,-0.00003,0.029,0
2025,8,16,28:06.1,-0.358,210,0.2,0,0.1,-1,-0.01,0.01,1,0.00007,0,-0.00003,0.029,0
2025,8,16,28:06.1,-0.356,212,0,0,0,-1,-0.01,0.01,1,0.00007,0,-0.00003,0.029,0
2025,8,16,28:06.1,-0.354,214,0,0,0,-0.99,-0.01,0.02,1,0.00007,0,-0.00003,0.029,0
2025,8,16,28:06.1,-0.352,216,0,-0.1,-0.1,-1,-0.02,0.01,1,0.00007,0,-0.00003,0.029,0
2025,8,16,28:06.1,-0.35,218,0.1,0.1,0,-1,0,0.01,1,0.00007,0,-0.00003,0.029,0
2025,8,16,28:06.1,-0.348,220,0,0,0,-0.99,-0.01,0.02,1,0.00007,0,-0.00003,0.029,0
2025,8,16,28:06.1,-0.346,222,0,0,0.2,-0.99,-0.02,0.01,1,0.00007,0,-0.00003,0.029,0
2025,8,16,28:06.1,-0.344,224,0,0,0,-0.99,-0.02,0.02,1,0.00007,0,-0.00003,0.029,0
2025,8,16,28:06.1,-0.342,226,0,0,0,-0.99,-0.02,0.02,1,0.00007,0,-0.00003,0.029,0
2025,8,16,28:06.1,-0.34,228,0,0,0.2,-0.99,-0.02,0.02,1,0.00007,0,-0.00003,0.029,0
2025,8,16,28:06.1,-0.338,230,0,0,0,-0.99,-0.01,0.01,1,0.00007,0,-0.00003,0.029,0
2025,8,16,28:06.1,-0.336,232,0.1,0,0,-1,-0.02,0.02,1,0.00007,0,-0.00003,0.029,0
2025,8,16,28:06.1,-0.334,234,-0.1,0,0,-0.99,0,0.02,1,0.00007,0,-0.00003,0.029,0
2025,8,16,28:06.1,-0.332,236,0,0,0,-0.99,-0.01,0.01,1,0.00007,0,-0.00003,0.029,0
2025,8,16,28:06.1,-0.33,238,0,0,0,-1,-0.02,0.02,1,0.00007,0,-0.00003,0.029,0
2025,8,16,28:06.1,-0.328,240,0,0,0,-0.99,-0.02,0.02,1,0.00007,0,-0.00003,0.029,0
2025,8,16,28:06.1,-0.326,242,0,0,0,-1,-0.02,0.02,1,0.00007,0,-0.00003,0.029,0
2025,8,16,28:06.1,-0.324,244,0,0,0,-0.99,-0.01,0.02,1,0.00007,0,-0.00003,0.029,0
2025,8,16,28:06.1,-0.322,246,0.3,0,0,-0.99,0,0.01,1,0.00007,0,-0.00003,0.029,0
2025,8,16,28:06.1,-0.32,248,-0.1,0,0.1,-0.99,-0.02,0.01,1,0.00007,0,-0.00003,0.029,0
2025,8,16,28:06.1,-0.318,0,0.1,0,0.1,-1,-0.01,0.02,1,0.00007,0,0,0.029,0
2025,8,16,28:06.1,-0.316,2,0,0,0,-0.99,-0.01,0.01,1,0.00007,0,0,0.029,0
2025,8,16,28:06.1,-0.314,4,0,0,0,-0.99,-0.01,0.01,1,0.00007,0,0,0.029,0
2025,8,16,28:06.1,-0.312,6,0,0,0,-1,0,0.01,1,0.00007,0,0,0.029,0
2025,8,16,28:06.1,-0.31,8,0,0,0,-1,-0.01,0.01,1,0.00007,0,0,0.029,0
2025,8,16,28:06.1,-0.308,10,0,0,0,-1,-0.01,0.02,1,0.00007,0,0,0.03,0
2025,8,16,28:06.1,-0.306,12,0,0,0,-0.99,-0.01,0.02,1,0.00007,0,0,0.029,0
2025,8,16,28:06.1,-0.304,14,0,-0.1,0.1,-1,-0.01,0,1,0.00007,0,0,0.029,0
2025,8,16,28:06.1,-0.302,16,0,0,0,-1,-0.02,0.02,1,0.00007,0,0,0.029,0
2025,8,16,28:06.1,-0.3,18,0.1,0,0,-0.99,-0.01,0.02,1,0.00007,0,0,0.029,0
2025,8,16,28:06.1,-0.298,20,0.1,0,0,-1,-0.02,0.02,1,0.00007,0,0,0.029,0
2025,8,16,28:06.1,-0.296,22,0,0,0,-0.99,-0.01,0.01,1,0.00007,0,0,0.029,0
2025,8,16,28:06.1,-0.294,24,0.2,-0.1,0,-0.99,-0.01,0.02,1,0.00007,0,0,0.029,0
2025,8,16,28:06.1,-0.292,26,0.2,0,0,-0.99,-0.01,0.01,1,0.0001,0,0,0.029,0
2025,8,16,28:06.1,-0.29,28,0.2,-0.1,0,-0.99,-0.02,0.01,1,0.0001,0,0,0.03,0
2025,8,16,28:06.1,-0.288,30,0.4,0,0.2,-0.99,-0.01,0.01,1,0.0001,0,0,0.029,0
2025,8,16,28:06.1,-0.286,32,0.2,0,0,-1,-0.01,0.01,1,0.0001,0,0,0.029,0
2025,8,16,28:06.1,-0.284,34,0.5,0.1,0.2,-0.99,0,0.02,1,0.0001,0,0,0.029,0
2025,8,16,28:06.1,-0.282,36,0.5,0,0.1,-0.99,-0.01,0.02,1,0.00013,0,0,0.029,0
2025,8,16,28:06.1,-0.28,38,0.7,0,0.2,-0.99,-0.01,0.02,1,0.00013,0,0,0.029,0
2025,8,16,28:06.1,-0.278,40,0.5,0,0.1,-0.99,-0.01,0.01,1,0.00013,0,0,0.029,0
2025,8,16,28:06.1,-0.276,42,0.7,0.1,0.1,-1,-0.01,0.02,1,0.00017,0,0,0.029,0
2025,8,16,28:06.1,-0.274,44,0.9,0,0,-1,-0.01,0.01,1,0.00017,0,0,0.029,0
2025,8,16,28:06.1,-0.272,46,1,0,0.1,-1,-0.01,0.02,1,0.0002,0,0,0.029,0
2025,8,16,28:06.1,-0.27,48,1,0,0.2,-1,-0.01,0.02,1,0.0002,0,0,0.029,0
2025,8,16,28:06.1,-0.268,50,1.2,0,0,-0.99,-0.01,0.02,1,0.00023,0,0,0.029,0
2025,8,16,28:06.1,-0.266,52,1,0,0.1,-1,0,0.02,1,0.00027,0,0,0.029,0
2025,8,16,28:06.1,-0.264,54,1.4,0,0,-0.99,-0.01,0.02,1,0.00027,0,0,0.029,0
2025,8,16,28:06.1,-0.262,56,1.6,0,0,-1,-0.01,0.02,1,0.0003,0,0,0.029,0
2025,8,16,28:06.2,-0.26,58,1.6,0,0.2,-0.99,0,0.02,1,0.00033,0,0,0.029,0
2025,8,16,28:06.2,-0.258,60,1.9,0.1,0.2,-0.99,-0.01,0.02,1,0.00037,0,0,0.029,0
2025,8,16,28:06.2,-0.256,62,1.9,0,0.1,-0.99,-0.01,0.02,1,0.0004,0,0,0.029,0
2025,8,16,28:06.2,-0.254,64,1.9,0,0,-1,0,0.01,0.99997,0.00043,0,0,0.029,0
2025,8,16,28:06.2,-0.252,66,2,0,0.2,-0.98,0,0.03,0.99997,0.00047,0,0,0.029,0
2025,8,16,28:06.2,-0.25,68,1.7,0,0.1,-0.99,0,0.02,0.99997,0.0005,0,0,0.029,0
2025,8,16,28:06.2,-0.248,70,1.9,0,0,-0.99,0,0.02,0.99997,0.00053,0,0,0.029,0
2025,8,16,28:06.2,-0.246,72,1.8,0,0.1,-1,-0.01,0.02,0.99997,0.00057,0,0,0.029,0
2025,8,16,28:06.2,-0.244,74,1.6,0.2,0.1,-0.99,-0.01,0.02,0.99997,0.0006,0,0,0.029,0
2025,8,16,28:06.2,-0.242,76,1.4,0,0.2,-1,-0.01,0.01,0.99997,0.00063,0,0.00003,0.029,0
2025,8,16,28:06.2,-0.24,78,1.3,0,0.1,-1,-0.02,0.02,0.99997,0.00063,0,0.00003,0.029,0
2025,8,16,28:06.2,-0.238,80,1.2,0,0.2,-0.99,-0.01,0.02,0.99997,0.00067,0,0.00003,0.029,0
2025,8,16,28:06.2,-0.236,82,1,-0.1,0.1,-0.99,-0.01,0.03,0.99997,0.0007,0,0.00003,0.029,0
2025,8,16,28:06.2,-0.234,84,1.2,-0.1,0,-0.99,-0.01,0.02,0.99997,0.0007,0,0.00003,0.029,0
2025,8,16,28:06.2,-0.232,86,1.1,0,0,-0.99,0,0.01,0.99997,0.00073,0,0.00003,0.029,0
2025,8,16,28:06.2,-0.23,88,0.8,-0.1,0,-1,-0.01,0.03,0.99997,0.00073,0,0.00003,0.029,0
2025,8,16,28:06.2,-0.228,90,1,0.1,0,-0.99,-0.01,0.03,0.99997,0.00077,0,0.00003,0.029,0
2025,8,16,28:06.2,-0.226,92,0.9,0.2,0,-1,-0.01,0.01,0.99997,0.00077,0,0.00003,0.029,0
2025,8,16,28:06.2,-0.224,94,0.5,0,0,-0.98,-0.01,0.02,0.99997,0.0008,0,0.00003,0.029,0
2025,8,16,28:06.2,-0.222,96,0,0,0.1,-1,-0.01,0,0.99997,0.0008,0,0.00003,0.03,0
2025,8,16,28:06.2,-0.22,98,-0.4,0,0,-0.98,-0.01,0,0.99997,0.00077,0,0.00003,0.029,0
2025,8,16,28:06.2,-0.218,100,-0.5,0.1,-0.1,-0.99,-0.02,0.01,0.99997,0.00077,0,0.00003,0.03,0
2025,8,16,28:06.2,-0.216,102,-1.4,0,-0.2,-1.01,-0.01,0,0.99997,0.00073,0,0.00003,0.029,0
2025,8,16,28:06.2,-0.214,104,-1.8,0,0,-1,-0.03,0,0.99997,0.0007,0,0.00003,0.029,0
2025,8,16,28:06.2,-0.212,106,-2.8,-0.1,-0.2,-0.99,-0.01,0.02,0.99997,0.00067,0,0.00003,0.029,0
2025,8,16,28:06.2,-0.21,108,-3,-0.1,-0.4,-0.99,-0.01,0,0.99997,0.0006,0,0,0.029,0
2025,8,16,28:06.2,-0.208,110,-3.2,0,-0.2,-0.98,-0.02,0.02,0.99997,0.00057,0,0,0.03,0
2025,8,16,28:06.2,-0.206,112,-3.2,0,-0.2,-0.97,-0.02,0.01,0.99997,0.0005,0,0,0.029,0
2025,8,16,28:06.2,-0.204,114,-3.4,0,-0.4,-1,-0.03,0.04,0.99997,0.00043,0,0,0.029,0
2025,8,16,28:06.2,-0.202,116,-3.3,0,0,-0.99,-0.02,0.02,0.99997,0.00037,0,0,0.03,0
2025,8,16,28:06.2,-0.2,118,-2.8,0.1,0,-1,-0.08,0.04,0.99997,0.00033,0,0,0.029,0
2025,8,16,28:06.2,-0.198,120,-2.7,0,-0.4,-1.03,0.02,0.02,1,0.00027,0,0,0.029,0
2025,8,16,28:06.2,-0.196,122,-1.9,0.3,-0.4,-0.99,-0.01,0.03,1,0.00023,0,0,0.029,0
2025,8,16,28:06.2,-0.194,124,-1.8,0.3,-0.6,-0.99,-0.04,0.01,1,0.0002,0,0,0.029,0
2025,8,16,28:06.2,-0.192,126,-1.5,0.3,0.5,-1.01,-0.01,0.03,1,0.0002,0.00003,0,0.029,0
2025,8,16,28:06.2,-0.19,128,-1.1,0.2,0.1,-0.99,-0.04,-0.01,1,0.00017,0.00003,0,0.029,0
2025,8,16,28:06.2,-0.188,130,-0.6,0,-0.2,-1.01,-0.02,0.02,1,0.00017,0.00003,0,0.029,0
2025,8,16,28:06.2,-0.186,132,-0.7,0.1,0.2,-1.01,-0.01,0,1,0.00013,0.00003,0,0.029,0
2025,8,16,28:06.2,-0.184,134,-0.2,0,0.7,-1,-0.02,0,1,0.00013,0.00003,0,0.029,0
2025,8,16,28:06.2,-0.182,136,0,-0.1,0.2,-0.99,-0.02,0.01,1,0.00013,0.00003,0,0.029,0
2025,8,16,28:06.2,-0.18,138,0.2,0,0.2,-0.99,-0.03,0.02,1,0.00013,0.00003,0,0.029,0
2025,8,16,28:06.2,-0.178,140,0.2,0.1,0.4,-0.99,-0.01,0,1,0.00013,0.00003,0,0.029,0
2025,8,16,28:06.2,-0.176,142,0.4,0.2,-0.2,-0.99,-0.03,0.01,1,0.00017,0.00003,0,0.029,0
2025,8,16,28:06.2,-0.174,144,0.2,0,-0.1,-0.99,0,0,1,0.00017,0.00003,0,0.029,0
2025,8,16,28:06.2,-0.172,146,0.2,-0.1,0.1,-0.98,0.01,0.01,1,0.00017,0.00003,0,0.029,0
2025,8,16,28:06.2,-0.17,148,0.2,-0.3,0,-1.03,-0.01,-0.01,1,0.00017,0.00003,0,0.029,0
2025,8,16,28:06.2,-0.168,150,0.7,-0.1,-0.2,-0.99,0.02,-0.04,1,0.00017,0.00003,0,0.029,0
2025,8,16,28:06.2,-0.166,152,0,0,-0.1,-0.99,0.02,0.05,1,0.00017,0.00003,0,0.029,0
2025,8,16,28:06.2,-0.164,154,0,-0.2,0.2,-0.98,-0.02,0,1,0.00017,0.00003,0,0.029,0
2025,8,16,28:06.2,-0.162,156,0.2,-0.1,-0.1,-0.96,0,0.01,1,0.0002,0.00003,0,0.029,0
2025,8,16,28:06.2,-0.16,158,-0.5,-0.2,0,-0.97,0.01,0.03,1,0.00017,0,0,0.029,0
2025,8,16,28:06.3,-0.158,160,-0.5,0.1,0.2,-0.96,0.03,0.04,1,0.00017,0.00003,0,0.029,0
2025,8,16,28:06.3,-0.156,162,-0.4,0,0,-1.01,0.01,0.02,1,0.00017,0.00003,0,0.029,0
2025,8,16,28:06.3,-0.154,164,-0.3,0,-0.2,-1,0,0.01,1,0.00017,0.00003,0,0.029,0
2025,8,16,28:06.3,-0.152,166,-0.8,-0.2,0.1,-0.97,0,0.03,1,0.00013,0,0,0.029,0
2025,8,16,28:06.3,-0.15,168,-0.6,-0.1,0.1,-1.02,0.01,0.01,1,0.00013,0,0,0.029,0
2025,8,16,28:06.3,-0.148,170,-0.8,0,-0.4,-1,-0.02,0.01,1,0.0001,0,0,0.029,0
2025,8,16,28:06.3,-0.146,172,-0.6,0,-0.4,-1.01,-0.01,0.03,1,0.0001,0,0,0.029,0
2025,8,16,28:06.3,-0.144,174,-1.6,0.3,-0.1,-1,0.03,0.01,1,0.00007,0.00003,0,0.029,0
2025,8,16,28:06.3,-0.142,176,-0.8,-0.3,-0.4,-1,-0.03,0.05,1,0.00007,0,0,0.029,0
2025,8,16,28:06.3,-0.14,178,-1.5,0.1,-0.4,-0.99,0.01,0.06,1,0.00003,0,0,0.029,0
2025,8,16,28:06.3,-0.138,180,-0.8,-0.3,-0.1,-1.04,-0.05,0,1,0,0,0,0.029,0
2025,8,16,28:06.3,-0.136,182,-1.3,0.2,-0.1,-1.02,0,-0.01,1,0,0,0,0.029,0
2025,8,16,28:06.3,-0.134,184,-1.2,0.2,-0.1,-1.1,-0.02,0.01,1,0,0,0,0.029,0
2025,8,16,28:06.3,-0.132,186,-1.9,0.3,0,-1.31,0.03,0.07,1,-0.00003,0.00003,0,0.029,0
2025,8,16,28:06.3,-0.13,188,3.9,-2.4,-7.2,-4.88,-0.27,0.36,1,0,0,-0.00013,0.029,0
2025,8,16,28:06.3,-0.128,190,31.1,-12.7,-2.6,-8.92,-0.61,0.32,0.99997,0.00053,-0.0002,-0.00017,0.03,0
2025,8,16,28:06.3,-0.126,192,-24.4,6.5,-10.7,-5.99,-0.05,-1.2,1,0.00013,-0.0001,-0.00037,0.029,0
2025,8,16,28:06.3,-0.124,194,2.6,6.4,-6.9,-8.18,0.41,-0.77,0.99997,0.00017,0,-0.00047,0.03,0
2025,8,16,28:06.3,-0.122,196,38.8,5.2,-0.2,-12.46,-1.64,-0.45,0.99997,0.00083,0.00007,-0.00047,0.029,0
2025,8,16,28:06.3,-0.12,198,-2.2,11.7,-6.1,-11.4,-0.29,0,0.99997,0.0008,0.00027,-0.0006,0.029,0
2025,8,16,28:06.3,-0.118,200,-7.8,13.3,-6.1,-13.02,0.28,1.52,0.99997,0.00067,0.0005,-0.0007,0.029,0
2025,8,16,28:06.3,-0.116,202,14.7,1.3,3.6,-13.36,-0.66,-0.92,0.99997,0.00093,0.00053,-0.00063,0.029,0
2025,8,16,28:06.3,-0.114,204,-14.1,0.4,-5.5,-12.77,0.28,0.09,0.99997,0.00067,0.00053,-0.00073,0.029,0
2025,8,16,28:06.3,-0.112,206,3.8,0.5,-8.2,-13.31,-0.7,-0.79,0.99997,0.00073,0.00057,-0.00087,0.029,0
2025,8,16,28:06.3,-0.11,208,-19.3,-5.2,4,-13.26,0.34,0.07,0.99997,0.0004,0.00047,-0.0008,0.029,0
2025,8,16,28:06.3,-0.108,210,-26,-8.5,3.7,-13.93,0.59,-1.49,0.99997,0,0.0003,-0.00073,0.029,0
2025,8,16,28:06.3,-0.106,212,-33.3,4.8,-3.5,-13.69,0.29,0.34,0.99997,-0.0006,0.0004,-0.0008,0.029,0
2025,8,16,28:06.3,-0.104,214,-26.9,5.9,-4.1,-14.29,0.32,0.87,0.99997,-0.00107,0.0005,-0.00087,0.029,0
2025,8,16,28:06.3,-0.102,216,-9,-16.2,-1.8,-14.17,-1.73,-1.21,0.99997,-0.00123,0.00023,-0.0009,0.029,0
2025,8,16,28:06.3,-0.1,218,-62.2,-26.2,-7.2,-14.43,-0.38,-1.87,0.99997,-0.0023,-0.0002,-0.00103,0.029,0
2025,8,16,28:06.3,-0.098,220,-78.4,-8.1,-6.2,-14.34,-0.03,-1.1,0.99997,-0.00367,-0.00033,-0.00113,0.029,0
2025,8,16,28:06.3,-0.096,222,-58.5,-6.9,-5.2,-14.99,-0.02,-0.21,0.99997,-0.0047,-0.00047,-0.00123,0.029,0
2025,8,16,28:06.3,-0.094,224,-65.8,-10.3,-6.8,-13.53,-0.1,-0.44,0.99997,-0.00587,-0.00063,-0.00133,0.029,0
2025,8,16,28:06.3,-0.092,226,-124.3,-12.2,-15.1,-14.25,0.56,-0.01,0.99993,-0.00803,-0.00087,-0.0016,0.029,0
2025,8,16,28:06.3,-0.09,228,-95.3,-41.1,-14.9,-15.19,-1.22,-1.05,0.99993,-0.0097,-0.00157,-0.00187,0.029,0
2025,8,16,28:06.3,-0.088,230,-107.2,-13.8,-0.9,-14.42,-1.17,-0.89,0.9999,-0.01157,-0.0018,-0.0019,0.029,0
2025,8,16,28:06.3,-0.086,232,-148.5,-12.7,0.2,-10.2,0.46,-0.82,0.99987,-0.01417,-0.00203,-0.0019,0.029,0
2025,8,16,28:06.3,-0.084,234,-127.4,-35.1,8.1,-14.65,-1.07,-0.14,0.99983,-0.01637,-0.00263,-0.00173,0.029,0
2025,8,16,28:06.3,-0.082,236,-167.2,-27.3,-2.1,-13.98,0.11,-1.16,0.9998,-0.0193,-0.0031,-0.00177,0.029,0
2025,8,16,28:06.3,-0.08,238,-164.2,-30.7,7,-16.28,0.09,1.43,0.99973,-0.02217,-0.00363,-0.00167,0.029,0
2025,8,16,28:06.3,-0.078,240,-153.1,-26,-1,-12.8,-1.32,1.01,0.99967,-0.02483,-0.0041,-0.00167,0.029,0
2025,8,16,28:06.3,-0.076,242,-185.3,-23.1,-2.3,-15.36,-0.32,0.83,0.99957,-0.02807,-0.0045,-0.0017,0.029,0
2025,8,16,28:06.3,-0.074,244,-174,-5.9,3.9,-13.64,-0.94,0.33,0.9995,-0.0311,-0.0046,-0.00167,0.029,0
2025,8,16,28:06.3,-0.072,246,-177.7,-7.1,-0.9,-14.61,-0.74,1.44,0.9994,-0.0342,-0.0047,-0.0017,0.029,0
2025,8,16,28:06.3,-0.07,248,-168.1,1.7,-3.2,-13.87,-0.38,1.14,0.99927,-0.03713,-0.00467,-0.00177,0.03,0
2025,8,16,28:06.3,-0.068,0,-177.4,-14.1,-2.6,-14.1,-0.05,0.87,0.99917,-0.04023,-0.00493,-0.0018,0.029,0
2025,8,16,28:06.3,-0.066,2,-189.4,4.9,4.1,-14.29,-0.53,0.73,0.99903,-0.04353,-0.00483,-0.00177,0.029,0
2025,8,16,28:06.3,-0.064,4,-162.9,8.9,-1.9,-13.95,0.44,1.38,0.9989,-0.04637,-0.00467,-0.0018,0.029,0
2025,8,16,28:06.3,-0.062,6,-168.7,14.6,-8.3,-14.05,0,0.76,0.99877,-0.0493,-0.0044,-0.00197,0.029,0
2025,8,16,28:06.3,-0.06,8,-164.9,9.1,6.4,-14.14,-0.19,0.28,0.9986,-0.0522,-0.00423,-0.0019,0.03,0
2025,8,16,28:06.4,-0.058,10,-133.6,24.4,6.9,-14.42,-0.23,0.27,0.9985,-0.05453,-0.0038,-0.0018,0.029,0
2025,8,16,28:06.4,-0.056,12,-139.9,19.5,-2.9,-14.09,-0.06,0.45,0.99837,-0.05697,-0.00347,-0.00187,0.029,0
2025,8,16,28:06.4,-0.054,14,-143.7,15.6,1.6,-14.79,0.3,0.29,0.9982,-0.05947,-0.00317,-0.00187,0.029,0
2025,8,16,28:06.4,-0.052,16,-114.6,21.7,2.8,-14.22,-0.42,-0.43,0.9981,-0.06147,-0.0028,-0.00187,0.029,0
2025,8,16,28:06.4,-0.05,18,-126.8,25.9,-14.2,-14.76,0.87,0.53,0.99793,-0.06367,-0.00233,-0.00213,0.029,0
2025,8,16,28:06.4,-0.048,20,-109.6,19.4,-8.1,-14.27,-0.14,-0.13,0.99783,-0.06557,-0.002,-0.0023,0.029,0
2025,8,16,28:06.4,-0.046,22,-84.4,13.1,-3.8,-14.5,-0.43,-0.21,0.99773,-0.06703,-0.0018,-0.0024,0.029,0
2025,8,16,28:06.4,-0.044,24,-104.9,19,-15.1,-14.72,-0.3,-0.73,0.9976,-0.06887,-0.00147,-0.00267,0.029,0
2025,8,16,28:06.4,-0.042,26,-87.7,13.6,-13.8,-15.02,0.13,-0.26,0.9975,-0.0704,-0.00123,-0.00293,0.029,0
2025,8,16,28:06.4,-0.04,28,-93.1,16.9,-0.1,-14.45,-0.19,0.29,0.99737,-0.07203,-0.00093,-0.00297,0.029,0
2025,8,16,28:06.4,-0.038,30,-125.4,17.1,-5,-14.25,-0.09,-0.39,0.99723,-0.0742,-0.00063,-0.00307,0.029,0
2025,8,16,28:06.4,-0.036,32,-95.1,21.1,-5.5,-14.45,-0.49,-0.29,0.9971,-0.07587,-0.00027,-0.0032,0.029,0
2025,8,16,28:06.4,-0.034,34,-124,16.8,-3.2,-14.32,-0.44,-0.2,0.99693,-0.078,0,-0.00327,0.029,0
2025,8,16,28:06.4,-0.032,36,-157.6,5.4,-4.5,-14.87,0.14,-0.03,0.9967,-0.08077,0.00007,-0.00337,0.029,0
2025,8,16,28:06.4,-0.03,38,-137.5,12.5,-5.8,-14.78,-0.85,-1.04,0.9965,-0.08313,0.0003,-0.0035,0.029,0
2025,8,16,28:06.4,-0.028,40,-161.5,19.8,-10.4,-14.78,-0.38,-0.21,0.99627,-0.08597,0.00063,-0.0037,0.029,0
2025,8,16,28:06.4,-0.026,42,-178.5,0.8,-6.4,-14.68,-0.42,0.19,0.996,-0.08907,0.00067,-0.0038,0.029,0
2025,8,16,28:06.4,-0.024,44,-197.7,-11.5,-5,-14.79,-0.54,-0.51,0.9957,-0.0925,0.00047,-0.00387,0.029,0
2025,8,16,28:06.4,-0.022,46,-218.7,0.2,-12.5,-14.86,-0.64,-0.66,0.99533,-0.0963,0.00047,-0.0041,0.029,0
2025,8,16,28:06.4,-0.02,48,-213.2,2.4,-13.7,-14.95,-0.29,-0.85,0.99497,-0.1,0.0005,-0.00433,0.029,0
2025,8,16,28:06.4,-0.018,50,-227.8,14.5,-17,-14.81,0.23,0.22,0.99457,-0.10397,0.00073,-0.00467,0.029,0
2025,8,16,28:06.4,-0.016,52,-232.1,13.8,-20,-14.63,0.05,-0.67,0.99413,-0.10797,0.00097,-0.00503,0.029,0
2025,8,16,28:06.4,-0.014,54,-244.2,2.4,-16.3,-14.38,0.66,-0.22,0.99367,-0.11223,0.001,-0.0053,0.029,0
2025,8,16,28:06.4,-0.012,56,-234.2,-12.3,-11.1,-15.13,-1.62,-1.25,0.99317,-0.11627,0.00077,-0.00547,0.029,0
2025,8,16,28:06.4,-0.01,58,-231.5,-34.1,-10.1,-15.34,-1.91,-0.13,0.9927,-0.1203,0.00017,-0.00557,0.029,0
2025,8,16,28:06.4,-0.008,60,-228.2,-4.8,-26.1,-15.02,-0.22,-0.53,0.9922,-0.12427,0.00007,-0.00603,0.029,0
2025,8,16,28:06.4,-0.006,62,-205.3,-27.8,1.7,-13.78,-2.43,-3.87,0.99177,-0.1278,-0.00037,-0.00593,0.029,0
2025,8,16,28:06.4,-0.004,64,-178.2,7,4.2,-14.47,-0.63,0.81,0.99137,-0.1309,-0.0002,-0.00587,0.029,0
2025,8,16,28:06.4,-0.002,66,-215.5,-9.2,-13.9,-14.9,-0.41,0.64,0.99087,-0.13463,-0.00037,-0.0061,0.029,0
2025,8,16,28:06.4,0,68,-201.1,-29.4,9.3,-14.98,-0.54,0.24,0.99037,-0.1381,-0.00083,-0.00587,0.029,0
2025,8,16,28:06.4,0.002,70,-224,1.2,14.6,-14.39,-0.1,-0.65,0.98983,-0.14197,-0.00077,-0.0056,0.029,0
2025,8,16,28:06.4,0.004,72,-205.9,-1.7,-10.2,-15.03,0.15,-0.04,0.9893,-0.14553,-0.0008,-0.0058,0.029,0
2025,8,16,28:06.4,0.006,74,-199.1,-9.2,4.2,-14.42,-1.01,-0.27,0.9888,-0.14897,-0.00093,-0.0057,0.029,0
2025,8,16,28:06.4,0.008,76,-278.3,-14.5,5.2,-14.13,0.27,-0.61,0.98807,-0.15377,-0.00113,-0.00557,0.029,0
2025,8,16,28:06.4,0.01,78,-263.4,-3.4,-22.3,-15.45,2.27,1.78,0.98733,-0.15833,-0.00123,-0.00597,0.03,0
2025,8,16,28:06.4,0.012,80,-276.7,4.4,-29.8,-14.97,0.42,0.4,0.98657,-0.1631,-0.0012,-0.0065,0.029,0
2025,8,16,28:06.4,0.014,82,-253.6,-11.6,-21.9,-15.39,-1.13,0.22,0.98583,-0.16747,-0.00143,-0.00683,0.029,0
2025,8,16,28:06.4,0.016,84,-243.5,1.2,-20.2,-14.48,0.92,2.06,0.9851,-0.17163,-0.00147,-0.0072,0.027,0
2025,8,16,28:06.4,0.018,86,-258.6,-6.1,-32.8,-15.16,-0.39,0.43,0.98433,-0.1761,-0.00163,-0.00777,0.029,0
2025,8,16,28:06.4,0.02,88,-231.7,-11.5,-3.5,-15.9,-0.56,-0.77,0.9836,-0.18007,-0.0018,-0.00777,0.029,0
2025,8,16,28:06.4,0.022,90,-219.5,11.1,22.9,-14.74,-0.09,-0.43,0.9829,-0.18383,-0.0015,-0.00743,0.029,0
2025,8,16,28:06.4,0.024,92,-231.6,8.5,8.6,-14.24,-0.27,-0.24,0.98217,-0.1878,-0.0013,-0.0073,0.029,0
2025,8,16,28:06.4,0.026,94,-229,-0.7,-0.6,-14.31,-0.46,-0.35,0.9814,-0.19173,-0.0013,-0.00733,0.029,0
2025,8,16,28:06.4,0.028,96,-234.7,-3.7,-5,-14.49,-0.05,0.76,0.9806,-0.19577,-0.00133,-0.0074,0.029,0
2025,8,16,28:06.4,0.03,98,-227.4,-10,-9.8,-13.97,-1.16,-0.6,0.97983,-0.19963,-0.0015,-0.00753,0.029,0
2025,8,16,28:06.4,0.032,100,-237.2,-6.5,-33.5,-14.87,0.7,1.71,0.97897,-0.2037,-0.0017,-0.0081,0.03,0
2025,8,16,28:06.4,0.034,102,-237.9,-9.2,-13.5,-15.72,-0.18,-0.83,0.97813,-0.20777,-0.0019,-0.0083,0.029,0
2025,8,16,28:06.4,0.036,104,-213.1,0.5,10.6,-14.85,0.48,-0.41,0.97733,-0.2114,-0.0018,-0.00813,0.03,0
2025,8,16,28:06.4,0.038,106,-200.5,3.4,-8.2,-15.28,0.23,0.1,0.9766,-0.21483,-0.00177,-0.0083,0.02,0
2025,8,16,28:06.5,0.04,108,-204.2,-4.5,-16,-14.72,-0.36,-0.99,0.97583,-0.2183,-0.00187,-0.00857,0.029,0
2025,8,16,28:06.5,0.042,110,-212,-7.1,-10.7,-14.06,-0.88,-0.15,0.975,-0.2219,-0.002,-0.00873,0.029,0
2025,8,16,28:06.5,0.044,112,-220.4,-35.4,-27.7,-15.03,0.51,0.31,0.97413,-0.22567,-0.00267,-0.00907,0.029,0
2025,8,16,28:06.5,0.046,114,-202.7,-13.8,-24.7,-14.32,0.31,0.01,0.97333,-0.2291,-0.00297,-0.00943,0.029,0
2025,8,16,28:06.5,0.048,116,-202.2,-24.1,-5.1,-15.55,-0.4,-1.2,0.9725,-0.23257,-0.00337,-0.00943,0.03,0
2025,8,16,28:06.5,0.05,118,-201.1,-8.6,-6.9,-14.5,-0.06,0.2,0.9717,-0.23597,-0.0035,-0.00953,0.029,0
2025,8,16,28:06.5,0.052,120,-203.2,-5,-15.8,-15.11,0.24,-0.46,0.97083,-0.2394,-0.00363,-0.0098,0.03,0
2025,8,16,28:06.5,0.054,122,-202.6,-10.7,2.8,-14.6,-0.71,-0.69,0.97,-0.24283,-0.00377,-0.00973,0.029,0
2025,8,16,28:06.5,0.056,124,-192.3,-22.6,0.6,-14.71,-0.33,-0.48,0.96917,-0.2461,-0.0041,-0.00963,0.029,0
2025,8,16,28:06.5,0.058,126,-205.2,-15.3,-24.5,-14.93,-0.1,-0.1,0.96827,-0.24957,-0.00443,-0.01,0.029,0
2025,8,16,28:06.5,0.06,128,-199.4,-15,-16.6,-14.94,-0.34,-0.63,0.9674,-0.25293,-0.00473,-0.01023,0.029,0
2025,8,16,28:06.5,0.062,130,-193.1,-21.8,-11.1,-14.91,-0.43,-0.04,0.96653,-0.2562,-0.0051,-0.01033,0.028,0
2025,8,16,28:06.5,0.064,132,-204.5,-14.5,-25.9,-15.1,-0.18,-0.31,0.9656,-0.25967,-0.00543,-0.01073,0.029,0
2025,8,16,28:06.5,0.066,134,-199.6,-14.3,-22.1,-15.02,-0.28,-0.24,0.9647,-0.26303,-0.00573,-0.01103,0.029,0
2025,8,16,28:06.5,0.068,136,-190.1,-11.1,-14,-14.73,-0.52,-0.36,0.9638,-0.26623,-0.00597,-0.01127,0.029,0
2025,8,16,28:06.5,0.07,138,-204.1,-13.6,-18.1,-15.08,0.13,-0.23,0.96283,-0.26967,-0.00623,-0.0115,0.029,0
2025,8,16,28:06.5,0.072,140,-201.2,-12.7,-21.7,-15.09,0.23,-0.19,0.9619,-0.27303,-0.0065,-0.01183,0.029,0
2025,8,16,28:06.5,0.074,142,-190.3,-10.6,-23.4,-14.89,-0.48,-0.23,0.96097,-0.27623,-0.00677,-0.0122,0.029,0
2025,8,16,28:06.5,0.076,144,-198.2,-11.1,-15.1,-14.82,-0.01,-0.04,0.96,-0.27957,-0.00697,-0.01243,0.029,0
2025,8,16,28:06.5,0.078,146,-196.7,-6.2,-20.2,-15.19,0.38,-0.01,0.95903,-0.28283,-0.00713,-0.01277,0.029,0
2025,8,16,28:06.5,0.08,148,-186.1,-4.3,-13.7,-14.95,-0.3,-0.14,0.9581,-0.28597,-0.00723,-0.013,0.029,0
2025,8,16,28:06.5,0.082,150,-188.6,-2.8,-12.4,-14.93,-0.25,-0.08,0.95717,-0.2891,-0.0073,-0.01323,0.033,0
2025,8,16,28:06.5,0.084,152,-190.1,-6.1,-13.4,-15,0.3,-0.16,0.9562,-0.2923,-0.00743,-0.01343,0.026,0
2025,8,16,28:06.5,0.086,154,-185.1,-2.7,-19.2,-14.99,-0.06,-0.2,0.95523,-0.29537,-0.00753,-0.01377,0.029,0
2025,8,16,28:06.5,0.088,156,-188.3,-3.7,-17.7,-14.7,-0.33,-0.05,0.95423,-0.2985,-0.00763,-0.01407,0.029,0
2025,8,16,28:06.5,0.09,158,-186,-4.1,-18.8,-15.06,0.21,-0.04,0.95327,-0.3016,-0.00777,-0.0144,0.029,0
2025,8,16,28:06.5,0.092,160,-182.1,-0.6,-27.7,-15.04,-0.18,-0.31,0.9523,-0.30463,-0.00787,-0.01487,0.029,0
2025,8,16,28:06.5,0.094,162,-183,1.6,-25.3,-14.93,-0.52,-0.13,0.9513,-0.30767,-0.00793,-0.01533,0.029,0
2025,8,16,28:06.5,0.096,164,-179.7,1.9,-22.3,-15.05,-0.11,-0.06,0.95033,-0.31063,-0.00797,-0.01573,0.029,0
2025,8,16,28:06.5,0.098,166,-183.4,2.1,-25.2,-15.13,0,-0.32,0.94933,-0.3137,-0.00803,-0.0162,0.03,0
2025,8,16,28:06.5,0.1,168,-183.6,2.6,-25.2,-14.91,-0.16,-0.1,0.9483,-0.31673,-0.00807,-0.01663,0.029,0
2025,8,16,28:06.5,0.102,170,-185,-2.4,-19.3,-14.94,0,-0.01,0.94727,-0.31977,-0.00817,-0.01697,0.029,0
2025,8,16,28:06.5,0.104,172,-183.3,-1.5,-24.5,-15.09,0.13,-0.13,0.94623,-0.3228,-0.00827,-0.0174,0.027,0
2025,8,16,28:06.5,0.106,174,-183.7,0.6,-26.7,-15,-0.01,-0.12,0.9452,-0.32583,-0.00837,-0.01787,0.029,0
2025,8,16,28:06.5,0.108,176,-180.5,0.4,-21.8,-15.08,-0.01,0.17,0.94417,-0.3288,-0.0084,-0.01827,0.029,0
2025,8,16,28:06.5,0.11,178,-182,0,-22.8,-15.18,0.07,-0.12,0.9431,-0.3318,-0.0085,-0.01867,0.029,0
2025,8,16,28:06.5,0.112,180,-181.4,-2.5,-22.3,-15.19,0.07,-0.18,0.94203,-0.3348,-0.0086,-0.01903,0.029,0
2025,8,16,28:06.5,0.114,182,-178.9,-2,-20.1,-14.99,-0.15,-0.07,0.94097,-0.33773,-0.0087,-0.0194,0.029,0
2025,8,16,28:06.5,0.116,184,-180.1,-7.2,-21.2,-15.13,-0.15,-0.16,0.9399,-0.34067,-0.00887,-0.01973,0.029,0
2025,8,16,28:06.5,0.118,186,-180,-5.2,-26.8,-15.22,0,0,0.93883,-0.34363,-0.00907,-0.02017,0.029,0
2025,8,16,28:06.5,0.12,188,-174.4,-6.9,-25.7,-15.1,-0.13,-0.15,0.93777,-0.3465,-0.00927,-0.02057,0.029,0
2025,8,16,28:06.5,0.122,190,-176.5,-6.5,-24.8,-15.09,-0.12,-0.05,0.93667,-0.34937,-0.00947,-0.02097,0.029,0
2025,8,16,28:06.5,0.124,192,-177.5,-6.4,-26.8,-15.18,-0.09,-0.2,0.93557,-0.35227,-0.00967,-0.0214,0.025,0
2025,8,16,28:06.5,0.126,194,-173.3,-5.1,-24.9,-15.08,-0.04,-0.08,0.9345,-0.3551,-0.00983,-0.0218,0.028,0
2025,8,16,28:06.5,0.128,196,-174.5,-6.2,-23.2,-15.05,-0.19,-0.19,0.9334,-0.35793,-0.01,-0.02217,0.029,0
2025,8,16,28:06.5,0.13,198,-176.7,-7.6,-22.1,-15.05,0.03,-0.03,0.9323,-0.36083,-0.0102,-0.0225,0.029,0
2025,8,16,28:06.5,0.132,200,-172.1,-8.5,-23.5,-15.1,0,-0.26,0.9312,-0.36363,-0.01043,-0.02287,0.029,0
2025,8,16,28:06.5,0.134,202,-172.1,-8.4,-25.4,-15.05,-0.22,-0.22,0.93007,-0.3664,-0.01067,-0.02327,0.029,0
2025,8,16,28:06.5,0.136,204,-173.8,-5.9,-23.6,-15.2,0.14,0.04,0.92893,-0.36923,-0.01083,-0.02363,0.029,0
2025,8,16,28:06.5,0.138,206,-167.9,-5.7,-24.8,-15.27,-0.05,-0.27,0.92787,-0.37197,-0.01103,-0.02403,0.029,0
2025,8,16,28:06.6,0.14,208,-168.7,-2.4,-25.4,-15.14,0,-0.16,0.92673,-0.37467,-0.01117,-0.02447,0.029,0
2025,8,16,28:06.6,0.142,210,-169.4,-3.5,-23,-15.08,-0.04,-0.13,0.92563,-0.3774,-0.0113,-0.02487,0.029,0
2025,8,16,28:06.6,0.144,212,-168.2,-4.9,-23.6,-15.19,0.02,-0.12,0.9245,-0.38013,-0.01147,-0.02523,0.029,0
2025,8,16,28:06.6,0.146,214,-166.8,-3.7,-25.4,-15.16,0.01,-0.28,0.92337,-0.38283,-0.0116,-0.02567,0.034,0
2025,8,16,28:06.6,0.148,216,-163.6,-0.9,-25.4,-15.15,0.08,-0.04,0.92227,-0.38543,-0.01173,-0.0261,0.029,0
2025,8,16,28:06.6,0.15,218,-161.7,0.1,-27.3,-15.26,-0.11,-0.02,0.92117,-0.38803,-0.01183,-0.02657,0.029,0
2025,8,16,28:06.6,0.152,220,-163,2.2,-28.6,-15.11,0.04,-0.1,0.92003,-0.39067,-0.0119,-0.02707,0.029,0
2025,8,16,28:06.6,0.154,222,-161.5,6.2,-27.5,-15.07,0,-0.04,0.91893,-0.39323,-0.01193,-0.0276,0.03,0
2025,8,16,28:06.6,0.156,224,-158.1,6.2,-26.9,-15.15,-0.19,-0.2,0.91783,-0.39577,-0.01193,-0.0281,0.029,0
2025,8,16,28:06.6,0.158,226,-160.9,7.7,-27.7,-15.21,0.12,-0.1,0.9167,-0.39833,-0.0119,-0.02863,0.029,0
2025,8,16,28:06.6,0.16,228,-159,7.8,-27.8,-15.23,-0.27,-0.17,0.91557,-0.40087,-0.0119,-0.02917,0.029,0
2025,8,16,28:06.6,0.162,230,-158.3,8.4,-26.7,-14.98,0.19,-0.3,0.91443,-0.4034,-0.01187,-0.0297,0.029,0
2025,8,16,28:06.6,0.164,232,-156.2,8.2,-28.4,-15.33,-0.01,-0.12,0.91333,-0.40587,-0.01187,-0.03023,0.029,0
2025,8,16,28:06.6,0.166,234,-154.8,10.2,-30.1,-15.28,0.05,-0.09,0.9122,-0.40833,-0.01183,-0.0308,0.029,0
2025,8,16,28:06.6,0.168,236,-154.6,11.4,-28.6,-15.17,-0.09,-0.21,0.9111,-0.41077,-0.01177,-0.0314,0.029,0
2025,8,16,28:06.6,0.17,238,-153.9,11.6,-27.6,-15.12,-0.04,-0.22,0.90997,-0.4132,-0.0117,-0.03193,0.029,0
2025,8,16,28:06.6,0.172,240,-153.7,11.7,-27.5,-15.09,0.04,-0.09,0.90887,-0.41563,-0.01163,-0.0325,0.029,0
2025,8,16,28:06.6,0.174,242,-151.8,11,-30,-15.21,0,-0.15,0.90773,-0.41803,-0.01157,-0.03307,0.029,0
2025,8,16,28:06.6,0.176,244,-152.5,11.1,-29.1,-15.17,0.03,-0.08,0.9066,-0.42043,-0.01153,-0.03367,0.029,0
2025,8,16,28:06.6,0.178,246,-150.6,9.5,-30.6,-15.25,-0.04,-0.15,0.90547,-0.4228,-0.0115,-0.03423,0.029,0
2025,8,16,28:06.6,0.18,248,-150.2,9.8,-31,-15.24,0.01,-0.09,0.90433,-0.42517,-0.0115,-0.03483,0.028,0
2025,8,16,28:06.6,0.182,0,-149.7,10.5,-29.3,-15.21,-0.03,-0.14,0.90323,-0.4275,-0.01147,-0.0354,0.029,0
2025,8,16,28:06.6,0.184,2,-148.6,9.9,-28.9,-15.25,0,-0.12,0.9021,-0.42983,-0.01143,-0.03597,0.029,0
2025,8,16,28:06.6,0.186,4,-147.2,9.3,-28.4,-15.27,0,-0.13,0.90097,-0.43213,-0.0114,-0.0365,0.029,0
2025,8,16,28:06.6,0.188,6,-147.1,7.1,-28.5,-15.25,0.04,-0.14,0.89983,-0.43447,-0.0114,-0.03703,0.029,0
2025,8,16,28:06.6,0.19,8,-146.2,6.3,-26.3,-15.2,-0.04,-0.19,0.8987,-0.43673,-0.0114,-0.03753,0.029,0
2025,8,16,28:06.6,0.192,10,-145.3,4.4,-27.8,-15.29,-0.05,-0.14,0.89757,-0.439,-0.01147,-0.03803,0.032,0
2025,8,16,28:06.6,0.194,12,-143.9,4.3,-28.4,-15.3,0.03,-0.05,0.89647,-0.44127,-0.0115,-0.03853,0.029,0
2025,8,16,28:06.6,0.196,14,-142.7,4.4,-26.3,-15.38,0.01,-0.18,0.89533,-0.44347,-0.01157,-0.03903,0.029,0
2025,8,16,28:06.6,0.198,16,-142.3,4.3,-25.4,-15.21,-0.03,-0.17,0.8942,-0.4457,-0.0116,-0.03947,0.029,0
2025,8,16,28:06.6,0.2,18,-141.8,6.6,-26.9,-15.29,0.03,-0.12,0.8931,-0.4479,-0.0116,-0.03997,0.029,0
2025,8,16,28:06.6,0.202,20,-137.6,7.8,-26.5,-15.24,0.01,-0.18,0.892,-0.45003,-0.01157,-0.0405,0.029,0
2025,8,16,28:06.6,0.204,22,-136.7,8.9,-25.6,-15.25,0.02,-0.13,0.8909,-0.45213,-0.01153,-0.041,0.029,0
2025,8,16,28:06.6,0.206,24,-135.9,8.1,-28.2,-15.22,0.02,-0.11,0.8898,-0.45423,-0.01153,-0.0415,0.029,0
2025,8,16,28:06.6,0.208,26,-133.8,8.4,-27.7,-15.31,-0.01,-0.09,0.88873,-0.4563,-0.01153,-0.04203,0.029,0
2025,8,16,28:06.6,0.21,28,-133.6,10.1,-26.5,-15.26,0.03,-0.09,0.88763,-0.45837,-0.0115,-0.04257,0.029,0
2025,8,16,28:06.6,0.212,30,-131.7,10.4,-27.8,-15.34,-0.01,-0.1,0.88657,-0.4604,-0.01147,-0.0431,0.019,0
2025,8,16,28:06.6,0.214,32,-129.6,10.9,-28.1,-15.52,0.01,-0.17,0.8855,-0.4624,-0.0114,-0.04367,0.029,0
2025,8,16,28:06.6,0.216,34,-129,10.9,-26.7,-15.34,0.09,0.02,0.88443,-0.46437,-0.01137,-0.04417,0.029,0
2025,8,16,28:06.6,0.218,36,-127.7,10,-24.9,-15.16,0.03,-0.14,0.8834,-0.46633,-0.0113,-0.04467,0.029,0
2025,8,16,28:06.6,0.22,38,-127.3,9.7,-27.4,-15.17,0.07,-0.14,0.88233,-0.46827,-0.0113,-0.0452,0.029,0
2025,8,16,28:06.6,0.222,40,-127.2,11.8,-25.8,-15.42,0.19,0.01,0.88127,-0.4702,-0.0112,-0.04573,0.029,0
2025,8,16,28:06.6,0.224,42,-124,13.1,-25.6,-15.27,0.07,-0.11,0.88023,-0.4721,-0.01113,-0.04623,0.03,0
2025,8,16,28:06.6,0.226,44,-122.4,14.5,-26.5,-15.49,0.03,-0.05,0.8792,-0.47397,-0.01103,-0.0468,0.029,0
2025,8,16,28:06.6,0.228,46,-122.9,14,-27,-15.15,0.19,-0.2,0.87817,-0.47583,-0.01093,-0.04737,0.029,0
2025,8,16,28:06.6,0.23,48,-121.9,13.8,-23.5,-15.23,0.01,-0.02,0.87713,-0.4777,-0.0108,-0.04783,0.029,0
2025,8,16,28:06.6,0.232,50,-118.1,12.7,-24.4,-15.15,0.09,-0.13,0.87613,-0.4795,-0.01073,-0.04837,0.029,0
2025,8,16,28:06.6,0.234,52,-117.7,12.5,-28.1,-15.35,0.12,-0.19,0.8751,-0.48127,-0.01067,-0.0489,0.029,0
2025,8,16,28:06.6,0.236,54,-115.3,12,-26.2,-15.26,0.11,-0.13,0.87413,-0.483,-0.0106,-0.04943,0.028,0
2025,8,16,28:06.6,0.238,56,-114.9,12.6,-26.6,-15.28,0.04,-0.02,0.87313,-0.48477,-0.01053,-0.04997,0.029,0
2025,8,16,28:06.7,0.24,58,-112.4,14.2,-27.4,-15.3,0.1,-0.07,0.87217,-0.48643,-0.01047,-0.05053,0.029,0
2025,8,16,28:06.7,0.242,60,-108.9,15.9,-26.8,-15.3,0,-0.15,0.8712,-0.4881,-0.01033,-0.0511,0.029,0
2025,8,16,28:06.7,0.244,62,-109.1,16.1,-24.6,-15.14,0.08,-0.14,0.87027,-0.48973,-0.0102,-0.05163,0.029,0
2025,8,16,28:06.7,0.246,64,-107,14.1,-25,-15.25,0.1,0.04,0.86933,-0.49133,-0.0101,-0.05213,0.029,0
2025,8,16,28:06.7,0.248,66,-104.6,11.4,-25.9,-15.23,0.01,-0.27,0.8684,-0.4929,-0.01007,-0.05267,0.029,0
2025,8,16,28:06.7,0.25,68,-106.5,13.8,-24,-15.37,0.2,0,0.86747,-0.4945,-0.00997,-0.05317,0.029,0
2025,8,16,28:06.7,0.252,70,-101.9,15.7,-24.6,-15.33,0.16,0.06,0.86657,-0.49603,-0.00983,-0.05367,0.029,0
2025,8,16,28:06.7,0.254,72,-98.4,15.9,-25.1,-15.32,0.03,-0.18,0.8657,-0.4975,-0.00973,-0.05423,0.029,0
2025,8,16,28:06.7,0.256,74,-98.9,17.7,-24,-15.32,0.17,-0.01,0.8648,-0.49897,-0.00957,-0.05477,0.035,0
2025,8,16,28:06.7,0.258,76,-96.6,15.9,-23.4,-15.34,0.1,-0.09,0.86393,-0.5004,-0.00943,-0.05527,0.029,0
2025,8,16,28:06.7,0.26,78,-94.4,15.4,-24.4,-15.25,0.1,-0.13,0.8631,-0.5018,-0.00933,-0.05577,0.029,0
2025,8,16,28:06.7,0.262,80,-92.3,14.8,-23.7,-15.27,0.18,-0.04,0.86227,-0.50317,-0.00923,-0.0563,0.029,0
2025,8,16,28:06.7,0.264,82,-90,15.7,-22.3,-15.19,0.12,0.03,0.86147,-0.5045,-0.0091,-0.05677,0.029,0
2025,8,16,28:06.7,0.266,84,-87.6,14.2,-24.4,-15.31,0.09,-0.05,0.86067,-0.5058,-0.009,-0.05727,0.029,0
2025,8,16,28:06.7,0.268,86,-85.7,17.8,-23.7,-15.29,0.14,-0.01,0.8599,-0.50707,-0.00887,-0.0578,0.029,0
2025,8,16,28:06.7,0.27,88,-83.6,15.7,-22.8,-15.24,0.12,-0.02,0.85913,-0.5083,-0.00877,-0.0583,0.029,0
2025,8,16,28:06.7,0.272,90,-81.9,16.4,-21.1,-15.24,0.06,-0.11,0.85837,-0.50953,-0.0086,-0.05877,0.029,0
2025,8,16,28:06.7,0.274,92,-81.1,13.1,-21.4,-15.26,0.13,-0.1,0.85763,-0.51073,-0.00853,-0.05923,0.029,0
2025,8,16,28:06.7,0.276,94,-79.5,13.1,-20.2,-15.27,0.13,0.01,0.8569,-0.5119,-0.00843,-0.05967,0.03,0
2025,8,16,28:06.7,0.278,96,-75.9,10.7,-19.4,-15.29,-0.01,-0.14,0.8562,-0.51303,-0.00837,-0.06007,0.028,0
2025,8,16,28:06.7,0.28,98,-74.4,10.5,-19.1,-15.28,0.11,0,0.85553,-0.51413,-0.0083,-0.06043,0.028,0
2025,8,16,28:06.7,0.282,100,-73.6,11.6,-19.7,-15.3,0.13,-0.05,0.85483,-0.5152,-0.00823,-0.06087,0.029,0
2025,8,16,28:06.7,0.284,102,-70.4,12.3,-18.5,-15.28,0.09,-0.08,0.8542,-0.51623,-0.00813,-0.06127,0.029,0
2025,8,16,28:06.7,0.286,104,-68.3,12.7,-17,-15.3,0.12,-0.02,0.85357,-0.51723,-0.00803,-0.06163,0.029,0
2025,8,16,28:06.7,0.288,106,-66.4,12,-17.8,-15.3,0.13,-0.03,0.85293,-0.5182,-0.00793,-0.06203,0.029,0
2025,8,16,28:06.7,0.29,108,-63.5,11.8,-17.1,-15.33,0.07,-0.11,0.85233,-0.51913,-0.00783,-0.0624,0.029,0
2025,8,16,28:06.7,0.292,110,-60.6,10.9,-16.3,-15.31,0.07,-0.07,0.85177,-0.52003,-0.00777,-0.06273,0.029,0
2025,8,16,28:06.7,0.294,112,-59.6,12.6,-17,-15.29,0.13,0,0.85123,-0.5209,-0.00767,-0.06313,0.029,0
2025,8,16,28:06.7,0.296,114,-55.5,14.1,-17.2,-15.32,0.06,-0.05,0.8507,-0.5217,-0.00753,-0.0635,0.029,0
2025,8,16,28:06.7,0.298,116,-54.2,15.7,-15.4,-15.37,0.17,0,0.8502,-0.5225,-0.0074,-0.0639,0.028,0
2025,8,16,28:06.7,0.3,118,-51.6,17.8,-15.8,-15.27,0.11,-0.06,0.8497,-0.52323,-0.0072,-0.0643,0.029,0
2025,8,16,28:06.7,0.302,120,-47.3,17.4,-15.2,-15.3,0.03,-0.17,0.84927,-0.52393,-0.00703,-0.0647,0.029,0
2025,8,16,28:06.7,0.304,122,-48.2,17.8,-14.6,-15.24,0.17,0.01,0.8488,-0.5246,-0.00687,-0.06507,0.029,0
2025,8,16,28:06.7,0.306,124,-43.5,18.3,-14.4,-15.27,0.16,-0.03,0.84837,-0.52523,-0.00667,-0.06547,0.029,0
2025,8,16,28:06.7,0.308,126,-41.3,18.5,-14.6,-15.32,0.12,-0.04,0.848,-0.52583,-0.00647,-0.06587,0.029,0
2025,8,16,28:06.7,0.31,128,-39.2,20.1,-14.9,-15.34,0.23,0.01,0.8476,-0.52637,-0.00627,-0.06627,0.029,0
2025,8,16,28:06.7,0.312,130,-36.1,22.7,-14.6,-15.26,0.11,-0.02,0.84727,-0.5269,-0.00603,-0.0667,0.029,0
2025,8,16,28:06.7,0.314,132,-33.6,24.6,-13.9,-15.29,0.14,-0.04,0.84693,-0.52737,-0.00573,-0.06713,0.029,0
2025,8,16,28:06.7,0.316,134,-31.1,24.4,-14.9,-15.25,0.13,-0.01,0.84663,-0.52777,-0.0055,-0.06757,0.029,0
2025,8,16,28:06.7,0.318,136,-27.9,23.8,-13.7,-15.32,0.13,-0.02,0.84637,-0.52817,-0.00523,-0.068,0.029,0
2025,8,16,28:06.7,0.32,138,-26.9,22.9,-13.3,-15.26,0.1,-0.05,0.8461,-0.52853,-0.00497,-0.0684,0.029,0
2025,8,16,28:06.7,0.322,140,-24.2,22.6,-13.1,-15.29,0.14,0,0.84587,-0.52887,-0.00473,-0.06883,0.02,0
2025,8,16,28:06.7,0.324,142,-20.4,22.7,-13.1,-15.33,0.1,0,0.84567,-0.52913,-0.0045,-0.06923,0.029,0
2025,8,16,28:06.7,0.326,144,-20.3,23.6,-12.6,-15.33,0.09,-0.05,0.84547,-0.5294,-0.00423,-0.06963,0.029,0
2025,8,16,28:06.7,0.328,146,-18.1,23.8,-12.4,-15.27,0.21,0,0.8453,-0.52963,-0.004,-0.07003,0.029,0
2025,8,16,28:06.7,0.33,148,-15.8,22.9,-11.8,-15.31,0.15,-0.03,0.84513,-0.52987,-0.00373,-0.07043,0.029,0
2025,8,16,28:06.7,0.332,150,-14.1,21.5,-10.4,-15.3,0.1,-0.08,0.84497,-0.53003,-0.0035,-0.07077,0.029,0
2025,8,16,28:06.7,0.334,152,-10.9,19.4,-10.1,-15.36,0.18,0.06,0.84487,-0.53017,-0.0033,-0.0711,0.029,0
2025,8,16,28:06.7,0.336,154,-8.8,17.8,-9.8,-15.35,0.06,-0.11,0.84477,-0.53027,-0.0031,-0.07143,0.029,0
2025,8,16,28:06.7,0.338,156,-8.8,17.3,-8.9,-15.3,0.1,-0.01,0.8447,-0.5304,-0.00293,-0.0717,0.03,0
2025,8,16,28:06.8,0.34,158,-4,17.6,-8.5,-15.4,0.08,0.01,0.84463,-0.53043,-0.00273,-0.072,0.029,0
2025,8,16,28:06.8,0.342,160,-3.4,16.8,-8.1,-15.31,0.23,0.05,0.8446,-0.53047,-0.00257,-0.07227,0.029,0
2025,8,16,28:06.8,0.344,162,-3.6,17.1,-6.2,-15.27,0.24,0,0.84457,-0.53047,-0.00237,-0.07253,0.026,0
2025,8,16,28:06.8,0.346,164,2.6,15.6,-6.2,-15.27,0.09,-0.08,0.84457,-0.53043,-0.0022,-0.07277,0.029,0
2025,8,16,28:06.8,0.348,166,2.9,15.5,-5.7,-15.32,0.24,-0.02,0.8446,-0.53037,-0.00203,-0.073,0.029,0
2025,8,16,28:06.8,0.35,168,4.9,14.5,-5.1,-15.27,0.18,0,0.84463,-0.53027,-0.00187,-0.0732,0.029,0
2025,8,16,28:06.8,0.352,170,8.2,13.8,-5.3,-15.35,0.23,0,0.8447,-0.53013,-0.0017,-0.0734,0.029,0
2025,8,16,28:06.8,0.354,172,11.9,13.8,-4.1,-15.32,0.13,-0.03,0.8448,-0.52993,-0.00157,-0.0736,0.029,0
2025,8,16,28:06.8,0.356,174,13.2,15.3,-3.4,-15.28,0.08,-0.04,0.84493,-0.52973,-0.0014,-0.0738,0.029,0
2025,8,16,28:06.8,0.358,176,14,15,-3.9,-15.36,0.15,0,0.84507,-0.5295,-0.00123,-0.074,0.029,0
2025,8,16,28:06.8,0.36,178,17.7,15.1,-2.9,-15.31,0.19,-0.01,0.8452,-0.5292,-0.00103,-0.07417,0.029,0
2025,8,16,28:06.8,0.362,180,19.2,13.3,-1.8,-15.32,0.18,0.01,0.8454,-0.5289,-0.0009,-0.07433,0.029,0
2025,8,16,28:06.8,0.364,182,21.4,13.3,-1.1,-15.27,0.14,-0.02,0.8456,-0.52857,-0.00073,-0.07447,0.028,0
2025,8,16,28:06.8,0.366,184,24.9,12.5,-1.1,-15.33,0.16,-0.07,0.8458,-0.5282,-0.0006,-0.0746,0.035,0
2025,8,16,28:06.8,0.368,186,25.8,13.1,-1,-15.31,0.16,0.05,0.84607,-0.5278,-0.00043,-0.07473,0.029,0
2025,8,16,28:06.8,0.37,188,28.5,11.9,-0.6,-15.4,0.09,-0.01,0.8463,-0.52737,-0.0003,-0.07487,0.029,0
2025,8,16,28:06.8,0.372,190,32.4,13.3,0,-15.4,0.17,-0.07,0.8466,-0.52687,-0.00017,-0.07497,0.029,0
2025,8,16,28:06.8,0.374,192,32.2,13.6,0.8,-15.28,0.08,0,0.8469,-0.52637,0,-0.0751,0.029,0
2025,8,16,28:06.8,0.376,194,34.5,12.1,0.9,-15.34,0.14,0,0.84723,-0.52583,0.00013,-0.0752,0.029,0
2025,8,16,28:06.8,0.378,196,38.6,11.2,1.8,-15.4,0.11,-0.03,0.8476,-0.52523,0.00027,-0.07527,0.029,0
2025,8,16,28:06.8,0.38,198,38.5,11.3,1.4,-15.29,0.12,-0.06,0.84793,-0.52467,0.0004,-0.07533,0.029,0
2025,8,16,28:06.8,0.382,200,41.3,10.8,2.1,-15.34,0.17,0.06,0.84833,-0.52403,0.0005,-0.07543,0.029,0
2025,8,16,28:06.8,0.384,202,47.2,12.4,2.5,-15.29,0.17,-0.11,0.84877,-0.52333,0.00067,-0.0755,0.029,0
2025,8,16,28:06.8,0.386,204,46.3,11.2,3.4,-15.39,0.15,0,0.8492,-0.52263,0.0008,-0.07553,0.028,0
2025,8,16,28:06.8,0.388,206,48.8,11,3.6,-15.25,0.16,0.03,0.84963,-0.52187,0.00093,-0.0756,0.029,0
2025,8,16,28:06.8,0.39,208,52.1,11,4,-15.4,0.18,0,0.8501,-0.5211,0.00107,-0.07563,0.029,0
2025,8,16,28:06.8,0.392,210,52,10.5,5.5,-15.3,0.11,-0.03,0.8506,-0.5203,0.0012,-0.07563,0.029,0
2025,8,16,28:06.8,0.394,212,54.8,9.8,5.6,-15.31,0.24,0.07,0.8511,-0.51947,0.00133,-0.07567,0.029,0
2025,8,16,28:06.8,0.396,214,56.7,9.3,5.1,-15.32,0.1,-0.06,0.85163,-0.51863,0.00143,-0.07567,0.029,0
2025,8,16,28:06.8,0.398,216,57.6,9.1,6.9,-15.42,0.18,0,0.85217,-0.51777,0.00157,-0.07563,0.029,0
2025,8,16,28:06.8,0.4,218,61.7,8.7,6.8,-15.39,0.12,0.13,0.8527,-0.51683,0.00167,-0.07563,0.029,0
2025,8,16,28:06.8,0.402,220,61.3,8.9,6.8,-15.37,0.04,-0.14,0.85327,-0.5159,0.00177,-0.0756,0.03,0
2025,8,16,28:06.8,0.404,222,65.5,8.9,8.2,-15.35,0.04,-0.11,0.85387,-0.5149,0.0019,-0.07557,0.03,0
2025,8,16,28:06.8,0.406,224,67.4,8,8.8,-15.33,0.11,0,0.8545,-0.5139,0.002,-0.0755,0.029,0
2025,8,16,28:06.8,0.408,226,66.9,7.7,8.4,-15.37,0.12,-0.02,0.8551,-0.51287,0.0021,-0.07547,0.029,0
2025,8,16,28:06.8,0.41,228,70.1,12.4,8.9,-15.36,0.17,-0.1,0.85573,-0.51183,0.0023,-0.07543,0.029,0
2025,8,16,28:06.8,0.412,230,77.2,12.5,9.6,-15.32,0.12,-0.04,0.85643,-0.51063,0.00247,-0.0754,0.029,0
2025,8,16,28:06.8,0.414,232,74.9,13.3,8.1,-15.36,0.14,0.01,0.85713,-0.5095,0.00263,-0.0754,0.029,0
2025,8,16,28:06.8,0.416,234,77.7,13.2,8.4,-15.39,0.19,-0.03,0.85783,-0.50833,0.0028,-0.0754,0.029,0
2025,8,16,28:06.8,0.418,236,79.6,13.7,9.8,-15.35,0.19,0.03,0.85853,-0.5071,0.003,-0.07537,0.029,0
2025,8,16,28:06.8,0.42,238,78.7,12.2,9.6,-15.33,0.09,0.05,0.85927,-0.50593,0.00317,-0.07533,0.029,0
2025,8,16,28:06.8,0.422,240,81.7,11.5,10,-15.28,0.16,-0.01,0.86,-0.50467,0.0033,-0.0753,0.029,0
2025,8,16,28:06.8,0.424,242,84,10.7,11.9,-15.44,0.18,-0.03,0.86073,-0.5034,0.00347,-0.07523,0.029,0
2025,8,16,28:06.8,0.426,244,86.1,9.6,12.3,-15.42,0.02,-0.01,0.8615,-0.5021,0.0036,-0.07513,0.029,0
2025,8,16,28:06.8,0.428,246,89,7.7,12.1,-15.42,0.14,-0.03,0.8623,-0.50073,0.00373,-0.07503,0.029,0
2025,8,16,28:06.8,0.43,248,88.6,9.4,12.4,-15.45,0.11,-0.06,0.8631,-0.4994,0.00387,-0.07493,0.029,0
2025,8,16,28:06.8,0.432,0,90.2,6.2,13.7,-15.36,0.08,-0.07,0.8639,-0.49803,0.00393,-0.07477,0.021,0
2025,8,16,28:06.8,0.434,2,88.3,5.5,13.7,-15.33,0.23,0,0.86467,-0.49667,0.00403,-0.07463,0.029,0
2025,8,16,28:06.8,0.436,4,90.3,4,14.6,-15.36,0.21,-0.07,0.86547,-0.4953,0.0041,-0.07443,0.029,0
2025,8,16,28:06.8,0.438,6,90.5,2.2,16.2,-15.35,0.13,-0.04,0.8663,-0.49393,0.00417,-0.07423,0.029,0
2025,8,16,28:06.9,0.44,8,91.6,1,15.8,-15.35,0.24,0.12,0.8671,-0.49253,0.0042,-0.074,0.029,0
2025,8,16,28:06.9,0.442,10,96.3,1.2,17,-15.41,0.11,0.09,0.86793,-0.4911,0.00423,-0.07377,0.029,0
2025,8,16,28:06.9,0.444,12,96.3,-0.3,17.8,-15.37,0.1,-0.03,0.8688,-0.48963,0.00427,-0.0735,0.029,0
2025,8,16,28:06.9,0.446,14,97.6,-0.3,18,-15.41,0.15,0.05,0.86963,-0.48813,0.0043,-0.07323,0.029,0
2025,8,16,28:06.9,0.448,16,97.4,-0.8,18.4,-15.4,0.17,0.01,0.8705,-0.48667,0.0043,-0.07293,0.029,0
2025,8,16,28:06.9,0.45,18,102.9,-2.1,20.3,-15.39,0.18,0.04,0.8714,-0.4851,0.0043,-0.07263,0.029,0
2025,8,16,28:06.9,0.452,20,104.5,-3.5,20,-15.27,0.09,-0.03,0.8723,-0.4835,0.0043,-0.0723,0.028,0
2025,8,16,28:06.9,0.454,22,106.4,-3.7,20,-15.35,0.21,0.04,0.87323,-0.4819,0.00427,-0.07197,0.029,0
2025,8,16,28:06.9,0.456,24,105.6,-2,20.9,-15.44,0.03,-0.08,0.87413,-0.4803,0.0043,-0.07163,0.029,0
2025,8,16,28:06.9,0.458,26,110.4,-2.6,21.7,-15.33,0.03,-0.09,0.8751,-0.4786,0.0043,-0.0713,0.029,0
2025,8,16,28:06.9,0.46,28,110,-1.6,21.9,-15.36,0.09,-0.07,0.87603,-0.47693,0.0043,-0.07097,0.029,0
2025,8,16,28:06.9,0.462,30,108.7,-1.5,21.7,-15.4,0.18,0,0.87697,-0.47527,0.00433,-0.0706,0.029,0
2025,8,16,28:06.9,0.464,32,112.4,0.2,22.4,-15.36,0.18,-0.03,0.87793,-0.47353,0.0044,-0.07027,0.029,0
2025,8,16,28:06.9,0.466,34,111.1,-0.3,22.1,-15.44,0.23,-0.07,0.87887,-0.47183,0.00443,-0.06993,0.029,0
2025,8,16,28:06.9,0.468,36,116.4,-0.1,22.6,-15.45,0.1,0.02,0.87987,-0.47003,0.00447,-0.0696,0.029,0
2025,8,16,28:06.9,0.47,38,115.1,2.4,22.2,-15.4,0.19,0.05,0.88083,-0.46827,0.00457,-0.0693,0.029,0
2025,8,16,28:06.9,0.472,40,118.8,4,22.4,-15.46,0.12,-0.04,0.88183,-0.46643,0.00467,-0.069,0.031,0
2025,8,16,28:06.9,0.474,42,120.2,4.9,22.6,-15.28,0.08,-0.03,0.88283,-0.46457,0.00477,-0.0687,0.029,0
2025,8,16,28:06.9,0.476,44,120.5,6,21.7,-15.35,0.08,0,0.88383,-0.4627,0.0049,-0.0684,0.033,0
2025,8,16,28:06.9,0.478,46,121.6,6.4,22.1,-15.4,0.07,0,0.88483,-0.4608,0.00503,-0.06813,0.029,0
2025,8,16,28:06.9,0.48,48,122.6,1.5,23,-15.36,0.02,-0.09,0.88583,-0.4589,0.0051,-0.0678,0.029,0
2025,8,16,28:06.9,0.482,50,120.7,2.4,22.2,-15.39,0.13,0.02,0.88683,-0.45703,0.00517,-0.0675,0.029,0
2025,8,16,28:06.9,0.484,52,123.4,1,24,-15.37,0,-0.08,0.88787,-0.45513,0.00523,-0.06713,0.029,0
2025,8,16,28:06.9,0.486,54,124.9,2.1,24.5,-15.33,0.05,-0.08,0.88887,-0.45317,0.0053,-0.06677,0.029,0
2025,8,16,28:06.9,0.488,56,121.3,3.1,23.5,-15.24,0.08,-0.01,0.88987,-0.4513,0.0054,-0.06647,0.029,0
2025,8,16,28:06.9,0.49,58,125.1,2.2,24.1,-15.42,0.08,0.03,0.89087,-0.44933,0.00547,-0.0661,0.029,0
2025,8,16,28:06.9,0.492,60,124.1,3.7,25,-15.29,0.03,-0.1,0.89187,-0.4474,0.0056,-0.06577,0.029,0
2025,8,16,28:06.9,0.494,62,126.1,2.6,24,-15.4,-0.02,0,0.89287,-0.44543,0.00567,-0.0654,0.029,0
2025,8,16,28:06.9,0.496,64,127.5,2.6,24.4,-15.38,0.05,-0.01,0.8939,-0.44343,0.00577,-0.06507,0.026,0
2025,8,16,28:06.9,0.498,66,124.8,1.2,24.4,-15.33,0.18,-0.02,0.8949,-0.4415,0.00583,-0.0647,0.029,0
2025,8,16,28:06.9,0.5,68,128.2,2.2,25.3,-15.42,-0.02,-0.13,0.8959,-0.43947,0.0059,-0.06433,0.029,0
2025,8,16,28:06.9,0.502,70,129.7,1.2,24.3,-15.36,0,-0.13,0.89693,-0.43743,0.00597,-0.064,0.029,0
2025,8,16,28:06.9,0.504,72,128.1,1.6,24.8,-15.38,0.03,-0.02,0.89793,-0.43543,0.00603,-0.06363,0.029,0
2025,8,16,28:06.9,0.506,74,127.7,2.1,25.3,-15.41,0.05,-0.12,0.89893,-0.43343,0.00613,-0.06327,0.029,0
2025,8,16,28:06.9,0.508,76,129,1.8,24.7,-15.45,-0.05,-0.09,0.89993,-0.4314,0.0062,-0.0629,0.029,0
2025,8,16,28:06.9,0.51,78,130.7,0.9,26.2,-15.35,0,-0.14,0.90093,-0.42933,0.00627,-0.0625,0.029,0
2025,8,16,28:06.9,0.512,80,129.7,1.3,26.7,-15.42,0.01,0,0.90193,-0.4273,0.00637,-0.0621,0.03,0
2025,8,16,28:06.9,0.514,82,131.6,2.3,26.1,-15.33,-0.07,-0.13,0.90293,-0.4252,0.00643,-0.06173,0.03,0
2025,8,16,28:06.9,0.516,84,130.1,2.4,26.4,-15.3,0.02,0.01,0.90393,-0.42317,0.00653,-0.06133,0.03,0
2025,8,16,28:06.9,0.518,86,131,3.8,25.7,-15.27,-0.02,-0.14,0.90493,-0.42107,0.00667,-0.06097,0.029,0
2025,8,16,28:06.9,0.52,88,134.3,1.1,26.1,-15.33,-0.02,-0.02,0.90593,-0.41893,0.00673,-0.0606,0.029,0
2025,8,16,28:06.9,0.522,90,130.7,2.7,25.6,-15.31,0.09,-0.06,0.9069,-0.41687,0.0068,-0.06023,0.029,0
2025,8,16,28:06.9,0.524,92,131.1,1.4,26.1,-15.32,0,-0.11,0.9079,-0.4148,0.0069,-0.05983,0.029,0
2025,8,16,28:06.9,0.526,94,136.3,1.2,27.3,-15.34,-0.24,-0.16,0.9089,-0.41263,0.00697,-0.05943,0.029,0
2025,8,16,28:06.9,0.528,96,130.4,1.5,26.2,-15.27,0.1,0.03,0.90987,-0.41053,0.00703,-0.05903,0.029,0
2025,8,16,28:06.9,0.53,98,132.3,2.1,25.9,-15.35,0.08,-0.06,0.91083,-0.40843,0.00713,-0.05867,0.028,0
2025,8,16,28:06.9,0.532,100,134.9,1.7,26.8,-15.16,-0.04,-0.15,0.91183,-0.4063,0.0072,-0.05827,0.029,0
2025,8,16,28:06.9,0.534,102,133,1.5,24,-15.34,0.15,0.09,0.9128,-0.40417,0.00727,-0.0579,0.029,0
2025,8,16,28:06.9,0.536,104,138.4,2.5,25.1,-15.22,0,-0.02,0.9138,-0.40197,0.00733,-0.05753,0.029,0
2025,8,16,28:06.9,0.538,106,138.2,1.2,24.8,-15.34,0.05,-0.03,0.9148,-0.39973,0.0074,-0.05717,0.029,0
2025,8,16,28:07.0,0.54,108,137.7,1.8,25.2,-15.31,0.02,0.01,0.91577,-0.39753,0.00747,-0.0568,0.029,0
2025,8,16,28:07.0,0.542,110,139.8,2.1,25.5,-15.3,0.03,0.04,0.91677,-0.3953,0.00753,-0.05643,0.029,0
2025,8,16,28:07.0,0.544,112,142.1,1.7,24.9,-15.23,-0.01,-0.13,0.91777,-0.393,0.0076,-0.05603,0.029,0
2025,8,16,28:07.0,0.546,114,141.3,3,24.8,-15.29,0.12,-0.03,0.91877,-0.39073,0.00767,-0.0557,0.029,0
2025,8,16,28:07.0,0.548,116,142.1,2.1,23.2,-15.27,-0.02,-0.03,0.91973,-0.38847,0.00773,-0.05537,0.029,0
2025,8,16,28:07.0,0.55,118,141.1,-0.1,24.4,-15.24,0.12,-0.05,0.92073,-0.3862,0.00777,-0.05497,0.029,0
2025,8,16,28:07.0,0.552,120,140.6,-3,25.9,-15.31,0.18,0.01,0.9217,-0.38393,0.00773,-0.05457,0.029,0
2025,8,16,28:07.0,0.554,122,145.4,-3.4,26.3,-15.36,-0.06,-0.09,0.9227,-0.3816,0.00773,-0.05413,0.029,0
2025,8,16,28:07.0,0.556,124,144.2,-2.8,25.9,-15.31,0.1,0,0.92367,-0.37927,0.00773,-0.0537,0.029,0
2025,8,16,28:07.0,0.558,126,144.2,0.4,25.8,-15.29,0.16,0.05,0.92463,-0.37693,0.00777,-0.05333,0.029,0
2025,8,16,28:07.0,0.56,128,148.9,-2.1,24.5,-15.34,-0.05,-0.08,0.92563,-0.37453,0.00777,-0.05293,0.029,0
2025,8,16,28:07.0,0.562,130,149.3,0.4,23.1,-15.2,0,-0.09,0.92663,-0.3721,0.00777,-0.05257,0.027,0
2025,8,16,28:07.0,0.564,132,150.7,3.1,22.7,-15.25,0.12,-0.07,0.92763,-0.36967,0.00783,-0.05227,0.029,0
2025,8,16,28:07.0,0.566,134,151.4,2.6,22.5,-15.25,-0.16,-0.1,0.92863,-0.3672,0.00787,-0.05193,0.029,0
2025,8,16,28:07.0,0.568,136,151.7,2.6,22,-15.34,0.01,-0.05,0.92963,-0.36473,0.00793,-0.0516,0.029,0
2025,8,16,28:07.0,0.57,138,151.9,5.1,21.6,-15.24,0.04,0.06,0.9306,-0.36227,0.008,-0.0513,0.029,0
2025,8,16,28:07.0,0.572,140,151.9,5.6,21.5,-15.29,-0.05,-0.16,0.93157,-0.3598,0.0081,-0.051,0.029,0
2025,8,16,28:07.0,0.574,142,154.2,5.6,20.5,-15.3,-0.08,-0.03,0.93257,-0.35727,0.0082,-0.05073,0.029,0
2025,8,16,28:07.0,0.576,144,154,6.9,20,-15.23,0.07,-0.1,0.93353,-0.35477,0.0083,-0.05047,0.029,0
2025,8,16,28:07.0,0.578,146,155.4,8.9,19.6,-15.25,-0.06,-0.13,0.9345,-0.3522,0.00843,-0.05023,0.029,0
2025,8,16,28:07.0,0.58,148,157.1,7.6,18.7,-15.28,0,-0.07,0.9355,-0.34963,0.00853,-0.05,0.029,0
2025,8,16,28:07.0,0.582,150,156.1,10.1,18.6,-15.21,-0.06,-0.06,0.93647,-0.34707,0.00867,-0.04977,0.03,0
2025,8,16,28:07.0,0.584,152,159.4,8.8,19.6,-15.2,0.26,0.09,0.93743,-0.34447,0.0088,-0.04953,0.029,0
2025,8,16,28:07.0,0.586,154,155.4,5.9,18.7,-15.2,0.15,-0.03,0.93837,-0.3419,0.00887,-0.04927,0.029,0
2025,8,16,28:07.0,0.588,156,157.5,7.1,16.5,-15.22,0,-0.08,0.93933,-0.3393,0.00893,-0.04907,0.029,0
2025,8,16,28:07.0,0.59,158,161.2,8.2,15.4,-15.1,0.14,-0.04,0.9403,-0.33667,0.00903,-0.0489,0.029,0
2025,8,16,28:07.0,0.592,160,155.2,7,16,-15.12,-0.24,0.06,0.9412,-0.3341,0.0091,-0.0487,0.029,0
2025,8,16,28:07.0,0.594,162,160.8,5.5,14.6,-15.2,0.1,-0.04,0.94217,-0.33143,0.00917,-0.04853,0.029,0
2025,8,16,28:07.0,0.596,164,158.4,5.7,16,-15.28,0.24,0.11,0.9431,-0.32883,0.0092,-0.0483,0.029,0
2025,8,16,28:07.0,0.598,166,163.7,1.4,16.7,-15.03,-0.14,-0.02,0.94403,-0.32613,0.0092,-0.04807,0.029,0
2025,8,16,28:07.0,0.6,168,161.5,3.1,16.1,-15.09,-0.12,0,0.94497,-0.32347,0.0092,-0.04787,0.03,0
2025,8,16,28:07.0,0.602,170,164.3,3.3,15.1,-15.26,0.08,0,0.9459,-0.32073,0.0092,-0.04763,0.029,0
2025,8,16,28:07.0,0.604,172,165,3.6,15.2,-15.16,-0.21,-0.11,0.94683,-0.318,0.0092,-0.04743,0.029,0
2025,8,16,28:07.0,0.606,174,164.5,-1.4,14,-15.26,-0.2,-0.09,0.94777,-0.3153,0.00913,-0.04723,0.029,0
2025,8,16,28:07.0,0.608,176,163.2,0,13,-15.1,0.19,-0.05,0.94867,-0.3126,0.00907,-0.04703,0.029,0
2025,8,16,28:07.0,0.61,178,164.3,-3.7,14.7,-15.25,-0.21,-0.28,0.94957,-0.30987,0.00893,-0.0468,0.029,0
2025,8,16,28:07.0,0.612,180,162.3,-5.7,12.9,-15.17,0,0.02,0.95043,-0.30717,0.0088,-0.04657,0.029,0
2025,8,16,28:07.0,0.614,182,162.1,-4.5,14.2,-15.31,0.18,-0.11,0.95133,-0.3045,0.00867,-0.04633,0.029,0
2025,8,16,28:07.0,0.616,184,159.1,-2.3,13.7,-15.07,0.24,0.09,0.95217,-0.30183,0.00857,-0.04613,0.029,0
2025,8,16,28:07.0,0.618,186,163.4,-3.4,12.4,-15.1,0,-0.18,0.95303,-0.29913,0.00843,-0.04593,0.029,0
2025,8,16,28:07.0,0.62,188,162.3,1.8,11,-15.18,0.38,0.14,0.9539,-0.29643,0.0084,-0.04577,0.03,0
2025,8,16,28:07.0,0.622,190,167.8,6,9.3,-15.2,0.1,-0.01,0.95477,-0.29363,0.0084,-0.04567,0.029,0
2025,8,16,28:07.0,0.624,192,168.7,-1,8.1,-15.23,0.21,0.14,0.95563,-0.2908,0.0083,-0.04557,0.029,0
2025,8,16,28:07.0,0.626,194,168.9,3,9.9,-15.16,0.03,-0.22,0.9565,-0.28797,0.00827,-0.04543,0.029,0
2025,8,16,28:07.0,0.628,196,170.1,0.8,9.5,-15.13,-0.06,-0.06,0.95737,-0.28513,0.0082,-0.0453,0.029,0
2025,8,16,28:07.0,0.63,198,173.4,5.8,8.8,-15.09,0.32,0.29,0.95823,-0.28223,0.0082,-0.0452,0.029,0
2025,8,16,28:07.0,0.632,200,175.3,2.4,7,-15.04,-0.2,-0.15,0.9591,-0.2793,0.00813,-0.04513,0.029,0
2025,8,16,28:07.0,0.634,202,173.9,3.7,6,-15.02,-0.33,-0.16,0.95993,-0.27637,0.0081,-0.04507,0.029,0
2025,8,16,28:07.0,0.636,204,169.1,3.5,4,-15.37,0.48,0.49,0.96077,-0.27353,0.00803,-0.04503,0.029,0
2025,8,16,28:07.0,0.638,206,169.9,4.4,3.4,-15.2,0.32,0.24,0.96157,-0.2707,0.008,-0.04503,0.029,0
2025,8,16,28:07.1,0.64,208,166.9,3.3,4.6,-15.23,0.3,0.22,0.96233,-0.26787,0.00793,-0.045,0.029,0
2025,8,16,28:07.1,0.642,210,181.7,4.2,5.7,-15,-0.06,0.1,0.9632,-0.26483,0.0079,-0.04493,0.029,0
2025,8,16,28:07.1,0.644,212,172.7,4.1,4.6,-15.04,0.42,0.42,0.964,-0.2619,0.00783,-0.0449,0.029,0
2025,8,16,28:07.1,0.646,214,172.5,1.8,3.1,-15.09,0.18,0.14,0.96477,-0.259,0.00777,-0.04487,0.029,0
2025,8,16,28:07.1,0.648,216,177.9,1.9,2.1,-15.15,0.15,0.22,0.96557,-0.256,0.00767,-0.04487,0.029,0
2025,8,16,28:07.1,0.65,218,173.2,4.6,-0.2,-15.12,0.19,0.26,0.96637,-0.25307,0.0076,-0.04493,0.03,0
2025,8,16,28:07.1,0.652,220,185,3.1,1.1,-14.97,-0.08,-0.6,0.96717,-0.24997,0.0075,-0.04493,0.029,0
2025,8,16,28:07.1,0.654,222,175.5,4.4,-0.9,-15.09,0.73,0.72,0.96793,-0.247,0.00743,-0.045,0.029,0
2025,8,16,28:07.1,0.656,224,172.5,4,0.8,-14.94,0.15,0,0.96867,-0.24407,0.00737,-0.04503,0.029,0
2025,8,16,28:07.1,0.658,226,186.9,-2,3.7,-14.9,-0.01,0.15,0.96947,-0.2409,0.00723,-0.04497,0.029,0
2025,8,16,28:07.1,0.66,228,191.1,4,2.3,-14.97,0.35,0.42,0.97027,-0.23767,0.00713,-0.04497,0.029,0
2025,8,16,28:07.1,0.662,230,183,2.1,-0.9,-15.11,0.28,0.5,0.971,-0.23457,0.00703,-0.04503,0.03,0
2025,8,16,28:07.1,0.664,232,188.9,0.4,-0.6,-14.89,0.07,-0.43,0.97177,-0.23137,0.0069,-0.04507,0.029,0
2025,8,16,28:07.1,0.666,234,189,2.6,-3,-15,-0.04,0.08,0.97253,-0.22817,0.00677,-0.04513,0.029,0
2025,8,16,28:07.1,0.668,236,186.9,2.5,-3.1,-15.05,0.06,0.26,0.97327,-0.22497,0.00667,-0.04523,0.029,0
2025,8,16,28:07.1,0.67,238,192,2.4,-3.1,-15.1,0.28,-0.27,0.974,-0.2217,0.00653,-0.0453,0.029,0
2025,8,16,28:07.1,0.672,240,186.4,1.1,-3,-15.07,0.42,0,0.97473,-0.21853,0.0064,-0.0454,0.029,0
2025,8,16,28:07.1,0.674,242,198.1,0.6,-0.5,-15.04,-0.02,0,0.97547,-0.21517,0.00623,-0.04543,0.029,0
2025,8,16,28:07.1,0.676,244,193,0.2,-1.3,-15.02,0.3,-0.11,0.9762,-0.21187,0.0061,-0.04547,0.029,0
2025,8,16,28:07.1,0.678,246,194.8,1.8,-3.4,-14.95,0.42,-0.11,0.9769,-0.20857,0.00597,-0.04557,0.029,0
2025,8,16,28:07.1,0.68,248,199.3,-0.2,-5.3,-15.12,-0.43,-0.06,0.97763,-0.20517,0.00577,-0.04567,0.029,0
2025,8,16,28:07.1,0.682,0,193.8,-0.3,-4.4,-15.09,0.23,-0.28,0.9783,-0.20183,0.0056,-0.04577,0.029,0
2025,8,16,28:07.1,0.684,2,196.6,0.7,-2.5,-14.91,0.12,-0.02,0.979,-0.1985,0.00543,-0.04583,0.029,0
2025,8,16,28:07.1,0.686,4,199.7,-2.2,-4.6,-15,-0.16,-0.22,0.97967,-0.19507,0.00523,-0.04593,0.029,0
2025,8,16,28:07.1,0.688,6,201.5,-2.4,-3.9,-15.03,0.15,-0.12,0.98037,-0.19163,0.005,-0.046,0.029,0
2025,8,16,28:07.1,0.69,8,201.1,-1.5,-3.7,-15.06,0.36,0,0.98103,-0.1882,0.0048,-0.04607,0.029,0
2025,8,16,28:07.1,0.692,10,201.7,-3.9,-6.7,-14.87,-0.24,-0.12,0.98167,-0.18473,0.00457,-0.0462,0.029,0
2025,8,16,28:07.1,0.694,12,204.9,-0.8,-7.8,-14.9,-0.4,-0.27,0.98233,-0.18123,0.00437,-0.04633,0.029,0
2025,8,16,28:07.1,0.696,14,192.8,1.4,-7.2,-15.14,0.55,0.23,0.98293,-0.1779,0.0042,-0.0465,0.029,0
2025,8,16,28:07.1,0.698,16,198.4,-1.2,-6.9,-15.14,0.08,0.19,0.98353,-0.1745,0.004,-0.0466,0.029,0
2025,8,16,28:07.1,0.7,18,205.1,-6.9,-7.6,-15.06,-0.15,-0.39,0.98413,-0.171,0.0037,-0.04673,0.029,0
2025,8,16,28:07.1,0.702,20,200.2,-2,-4.4,-15.01,0.19,0.25,0.98473,-0.16757,0.00347,-0.04683,0.029,0
2025,8,16,28:07.1,0.704,22,206,-3.7,-4.8,-14.93,-0.17,-0.15,0.9853,-0.16403,0.00323,-0.0469,0.029,0
2025,8,16,28:07.1,0.706,24,207.8,-1.2,-7.4,-14.75,0.21,-0.25,0.9859,-0.16043,0.00303,-0.04703,0.029,0
2025,8,16,28:07.1,0.708,26,209.2,-3.1,-7,-15.06,0,0.06,0.98647,-0.15683,0.00277,-0.04717,0.029,0
2025,8,16,28:07.1,0.71,28,204.9,-2.1,-8,-14.87,0.39,0.08,0.98703,-0.15333,0.00253,-0.0473,0.029,0
2025,8,16,28:07.1,0.712,30,212.2,-5.2,-9.5,-15.03,-0.15,-0.27,0.98757,-0.14967,0.00227,-0.04747,0.029,0
2025,8,16,28:07.1,0.714,32,211.3,-4.9,-7.4,-14.79,0.4,0.02,0.9881,-0.14603,0.00197,-0.0476,0.029,0
2025,8,16,28:07.1,0.716,34,211.4,-6.5,-6.9,-14.98,0.17,-0.01,0.98863,-0.1424,0.00167,-0.0477,0.029,0
2025,8,16,28:07.1,0.718,36,210.6,-4.1,-6.5,-14.86,0.06,-0.1,0.98917,-0.13877,0.0014,-0.0478,0.029,0
2025,8,16,28:07.1,0.72,38,215.5,-4.2,-6.5,-14.85,-0.1,-0.2,0.98967,-0.13503,0.00113,-0.04793,0.029,0
2025,8,16,28:07.1,0.722,40,219.9,-5.3,-9.4,-14.87,-0.03,-0.26,0.99017,-0.13123,0.00083,-0.04807,0.029,0
2025,8,16,28:07.1,0.724,42,210.8,-4.1,-9.3,-15.02,0.27,-0.08,0.99063,-0.1276,0.00057,-0.04823,0.029,0
2025,8,16,28:07.1,0.726,44,207.9,-5.5,-9.2,-14.94,0.24,0.04,0.99107,-0.124,0.00027,-0.04837,0.029,0
2025,8,16,28:07.1,0.728,46,212.8,-4.6,-8.3,-14.61,0.06,-0.32,0.99153,-0.12033,0,-0.0485,0.029,0
2025,8,16,28:07.1,0.73,48,213.9,-7.2,-8.8,-15.11,0.35,0.07,0.99197,-0.11663,-0.0003,-0.04867,0.029,0
2025,8,16,28:07.1,0.732,50,216.8,-4.5,-5.9,-14.78,0.35,0.31,0.9924,-0.11287,-0.00057,-0.04873,0.029,0
2025,8,16,28:07.1,0.734,52,218.2,-8.3,-9.3,-15.04,-0.07,-0.28,0.9928,-0.1091,-0.00093,-0.0489,0.029,0
2025,8,16,28:07.1,0.736,54,218.4,-3.6,-8.6,-14.98,0.25,0.23,0.9932,-0.10533,-0.0012,-0.04903,0.029,0
2025,8,16,28:07.1,0.738,56,216,-3.8,-8.8,-14.85,0.36,0.04,0.9936,-0.10157,-0.00147,-0.04917,0.029,0
2025,8,16,28:07.2,0.74,58,220.5,-4.8,-11.3,-14.97,0.13,-0.28,0.99397,-0.09777,-0.00173,-0.04933,0.029,0
2025,8,16,28:07.2,0.742,60,218.7,-5,-9.6,-14.9,0.3,-0.43,0.99433,-0.09397,-0.00203,-0.0495,0.029,0
2025,8,16,28:07.2,0.744,62,218.3,-7.6,-9.7,-15.12,0.27,0.04,0.99467,-0.09017,-0.00237,-0.04963,0.029,0
2025,8,16,28:07.2,0.746,64,223.3,-6.5,-7.9,-14.74,0.24,-0.46,0.995,-0.0863,-0.0027,-0.04977,0.029,0
2025,8,16,28:07.2,0.748,66,223.1,-6.1,-10.2,-14.95,0.32,-0.23,0.99533,-0.08243,-0.003,-0.04993,0.029,0
2025,8,16,28:07.2,0.75,68,219.6,-4.8,-9.5,-14.88,-0.09,0.02,0.99563,-0.07863,-0.0033,-0.05007,0.029,0
